gpssec acc_x(m/s^2) acc_y(m/s^2) acc_z(m/s^2) gyro_x(rad/s) gyro_y(rad/s)  gyro_z(rad/s)
72476.796196 -0.439636 0.173462 -10.054810 -0.004027 -0.002349 -0.005033
72476.805929 -0.451599 0.188416 -10.078735 -0.003356 0.000671 -0.001007
72476.816183 -0.475525 0.149536 -10.057800 -0.002013 -0.001678 0.000671
72476.825941 -0.511414 0.140564 -10.012939 -0.001678 -0.001678 -0.001678
72476.836195 -0.508423 0.194397 -10.024902 -0.004362 0.001678 -0.004698
72476.845926 -0.481506 0.209351 -10.081726 -0.005033 0.002349 -0.001678
72476.856208 -0.469543 0.164490 -10.075745 -0.002349 0.003356 -0.001007
72476.867265 -0.475525 0.137573 -10.012939 -0.002013 0.003020 -0.000336
72476.879766 -0.502441 0.155518 -10.024902 -0.003020 -0.001342 -0.003020
72476.886192 -0.520386 0.170471 -10.075745 -0.004027 -0.001007 -0.000336
72476.896180 -0.493469 0.176453 -10.045837 -0.003020 0.000671 0.000671
72476.905937 -0.469543 0.179443 -9.983032 -0.003020 0.000671 -0.002684
72476.916190 -0.478516 0.146545 -10.015930 -0.002684 -0.000336 -0.002013
72476.925922 -0.511414 0.137573 -10.099670 0.001007 -0.000671 -0.001678
72476.936175 -0.505432 0.170471 -10.066772 -0.003020 0.000224 -0.005704
72476.945934 -0.493469 0.137573 -9.959106 -0.006711 0.001119 -0.004027
72476.956186 -0.499451 0.122620 -10.018921 -0.004698 0.002013 -0.000671
72476.967274 -0.478516 0.185425 -10.123596 -0.002684 0.002684 0.000671
72476.979744 -0.469543 0.200378 -10.057800 -0.004027 0.000671 -0.000671
72476.986172 -0.478516 0.119629 -9.989014 -0.004362 0.000168 -0.002684
72476.996184 -0.502441 0.116638 -10.039856 -0.002349 -0.000336 -0.003691
72477.005916 -0.508423 0.197388 -10.090698 -0.003020 0.004362 -0.001007
72477.016172 -0.478516 0.218323 -10.048828 -0.004027 0.001342 -0.002181
72477.025903 -0.457581 0.152527 -9.992004 -0.004027 -0.002013 -0.003356
72477.036156 -0.481506 0.140564 -10.045837 -0.000336 -0.002349 -0.004362
72477.045915 -0.514404 0.161499 -10.114624 -0.002013 0.000000 -0.002684
72477.056172 -0.490479 0.152527 -10.063782 -0.004027 0.002349 -0.001007
72477.067253 -0.445618 0.146545 -9.994995 -0.001678 -0.000336 -0.000336
72477.079751 -0.430664 0.176453 -10.045837 -0.003020 0.002349 -0.003356
72477.086180 -0.460571 0.152527 -10.102661 -0.006040 0.002349 -0.003691
72477.096166 -0.487488 0.125610 -10.063782 -0.003020 -0.000671 -0.001342
72477.105897 -0.508423 0.146545 -10.000977 -0.000671 0.001678 -0.001007
72477.116150 -0.511414 0.119629 -10.015930 0.000336 0.001007 0.000336
72477.125883 -0.502441 0.104675 -10.072754 -0.001342 -0.001342 -0.000839
72477.136164 -0.469543 0.167480 -10.054810 -0.006376 0.000671 -0.002013
72477.145895 -0.442627 0.182434 -10.003967 -0.005704 0.000839 -0.003356
72477.156148 -0.463562 0.113647 -10.051819 -0.004362 0.001007 -0.003020
72477.167235 -0.502441 0.110657 -10.084717 -0.002349 0.001342 -0.000336
72477.179731 -0.493469 0.170471 -10.030884 -0.004027 0.004362 -0.001342
72477.186159 -0.457581 0.188416 -10.009949 -0.003356 0.001510 -0.003020
72477.196145 -0.445618 0.155518 -10.060791 -0.003691 -0.001342 -0.002013
72477.205878 -0.466553 0.134583 -10.084717 -0.000671 -0.002349 -0.001342
72477.216132 -0.508423 0.131592 -10.039856 -0.003020 -0.001342 -0.000671
72477.225890 -0.502441 0.125610 -10.027893 -0.006040 0.000671 -0.003691
72477.236142 -0.460571 0.149536 -10.069763 -0.003691 0.001678 -0.002013
72477.245876 -0.457581 0.164490 -10.066772 -0.001342 0.002684 -0.001510
72477.256154 -0.472534 0.137573 -10.024902 -0.002349 0.004027 -0.001007
72477.267240 -0.493469 0.122620 -10.036865 -0.005033 -0.001007 -0.002349
72477.279712 -0.511414 0.164490 -10.072754 -0.004362 -0.000336 -0.003020
72477.286140 -0.496460 0.152527 -10.039856 -0.004698 0.004362 -0.003691
72477.296126 -0.478516 0.119629 -10.009949 -0.004027 -0.000671 -0.003020
72477.305884 -0.463562 0.170471 -10.060791 -0.004698 -0.002349 -0.000839
72477.316137 -0.454590 0.203369 -10.087708 -0.004362 -0.000336 0.001342
72477.325870 -0.475525 0.161499 -10.045837 -0.003020 0.000336 -0.000336
72477.336123 -0.517395 0.146545 -10.015930 -0.003691 0.001174 -0.004027
72477.345880 -0.526367 0.194397 -10.036865 -0.004698 0.002013 -0.005033
72477.356136 -0.493469 0.227295 -10.063782 -0.002684 -0.001342 -0.000336
72477.367220 -0.460571 0.182434 -10.033875 -0.003691 -0.000336 -0.004027
72477.379691 -0.478516 0.143555 -10.015930 -0.004027 0.000671 -0.004698
72477.386121 -0.508423 0.146545 -10.066772 -0.003691 0.004362 -0.001007
72477.396131 -0.514404 0.155518 -10.081726 -0.005369 0.004027 -0.002013
72477.405864 -0.490479 0.155518 -10.027893 -0.001678 0.000671 -0.001007
72477.416117 -0.463562 0.164490 -10.015930 -0.002684 0.000336 -0.002349
72477.425850 -0.466553 0.155518 -10.057800 -0.005033 -0.001007 -0.003691
72477.436130 -0.487488 0.143555 -10.078735 -0.004027 -0.001342 -0.004027
72477.445836 -0.502441 0.173462 -10.042847 -0.001007 -0.001510 -0.002349
72477.456116 -0.508423 0.155518 -9.992004 -0.000671 -0.001678 -0.001678
72477.467200 -0.487488 0.125610 -10.033875 -0.004362 0.000336 -0.002013
72477.479701 -0.475525 0.164490 -10.093689 -0.004027 0.004027 -0.001342
72477.486128 -0.463562 0.173462 -10.057800 -0.004027 0.002684 -0.001510
72477.496115 -0.463562 0.125610 -10.027893 -0.003691 0.001678 -0.001678
72477.505847 -0.505432 0.116638 -10.042847 -0.002013 0.000336 -0.003020
72477.516098 -0.505432 0.164490 -10.063782 -0.002684 0.000671 -0.001342
72477.525857 -0.475525 0.191406 -10.057800 -0.003020 0.001007 -0.002013
72477.536112 -0.451599 0.167480 -10.042847 -0.002013 0.003020 -0.002684
72477.545844 -0.457581 0.116638 -10.042847 -0.003356 0.000336 -0.003356
72477.556096 -0.481506 0.101685 -10.078735 -0.001007 -0.002684 -0.002349
72477.567184 -0.496460 0.125610 -10.078735 -0.000671 -0.002684 -0.000671
72477.579683 -0.475525 0.146545 -10.036865 -0.002349 0.001007 -0.001678
72477.586109 -0.445618 0.149536 -10.021912 -0.002349 -0.000503 -0.001678
72477.596092 -0.454590 0.131592 -10.030884 -0.004698 -0.002013 -0.001342
72477.605826 -0.475525 0.119629 -10.048828 -0.004027 0.000671 -0.001510
72477.616106 -0.508423 0.152527 -10.063782 -0.003356 0.003020 -0.001678
72477.625837 -0.517395 0.137573 -10.027893 -0.005704 0.002013 -0.006376
72477.636090 -0.499451 0.101685 -10.006958 -0.004362 -0.000671 -0.001342
72477.645824 -0.478516 0.155518 -10.051819 -0.002013 -0.001678 0.001342
72477.656078 -0.475525 0.188416 -10.060791 -0.002684 -0.000336 -0.001510
72477.667188 -0.478516 0.155518 -10.039856 -0.004698 0.001007 -0.004362
72477.679660 -0.505432 0.140564 -10.036865 -0.004362 -0.001007 -0.001678
72477.686089 -0.526367 0.146545 -10.036865 -0.004698 0.000336 -0.002181
72477.696100 -0.499451 0.185425 -10.060791 -0.004027 -0.000671 -0.002684
72477.705832 -0.469543 0.212341 -10.066772 -0.000671 0.002349 -0.005704
72477.716086 -0.475525 0.155518 -10.036865 -0.003691 0.000336 -0.002013
72477.725818 -0.496460 0.113647 -10.048828 -0.005369 -0.000671 -0.001007
72477.736072 -0.511414 0.146545 -10.075745 -0.003356 0.001007 -0.000336
72477.745805 -0.502441 0.167480 -10.054810 -0.002349 0.002349 0.000336
72477.756083 -0.466553 0.176453 -10.024902 -0.003020 0.002349 -0.001342
72477.767168 -0.460571 0.173462 -10.027893 -0.003356 -0.000336 -0.002013
72477.779639 -0.469543 0.137573 -10.054810 -0.002684 -0.002684 -0.002684
72477.786070 -0.493469 0.155518 -10.078735 -0.002684 -0.000671 -0.002013
72477.796081 -0.493469 0.173462 -10.039856 -0.005033 0.002349 -0.001342
72477.000000 -1.716600 2.375098 -13.219997 -0.005033 0.112137 -0.028789
72477.805813 -0.478516 0.146545 -10.000977 -0.005033 0.001007 -0.001007
72477.816066 -0.454590 0.161499 -10.060791 -0.002013 0.000336 -0.001007
72477.825800 -0.439636 0.188416 -10.087708 -0.004362 0.002013 -0.002013
72477.836079 -0.442627 0.161499 -10.039856 -0.005369 0.000336 -0.002349
72477.845812 -0.463562 0.149536 -10.033875 -0.004362 -0.001342 -0.003020
72477.856065 -0.487488 0.152527 -10.054810 -0.003691 -0.001007 -0.002684
72477.867151 -0.484497 0.188416 -10.057800 -0.001678 -0.000671 -0.002349
72477.879648 -0.457581 0.218323 -10.027893 -0.002684 0.001007 -0.001678
72477.886077 -0.451599 0.179443 -10.018921 -0.003020 0.002013 -0.000336
72477.896064 -0.481506 0.140564 -10.054810 -0.004027 0.003356 -0.002013
72477.905794 -0.517395 0.149536 -10.078735 -0.003691 0.000336 -0.001510
72477.916047 -0.499451 0.149536 -10.030884 -0.003020 0.001678 -0.001007
72477.925780 -0.460571 0.149536 -10.015930 -0.002349 0.000336 -0.003020
72477.936060 -0.460571 0.179443 -10.045837 -0.004362 -0.001007 -0.001342
72477.945792 -0.496460 0.155518 -10.042847 -0.003020 -0.002013 -0.001342
72477.956044 -0.517395 0.155518 -10.039856 -0.002684 -0.001342 -0.000336
72477.967130 -0.520386 0.173462 -10.039856 -0.004698 0.000671 -0.003020
72477.979631 -0.520386 0.140564 -10.024902 -0.002013 0.002013 -0.002013
72477.986058 -0.502441 0.149536 -10.039856 -0.000336 -0.001678 -0.002349
72477.996042 -0.481506 0.185425 -10.045837 -0.003356 -0.001342 -0.002684
72478.000000 -0.485155 0.169615 -10.038541 -0.003628 0.000022 -0.002412
72478.005775 -0.490479 0.146545 -10.027893 -0.004027 0.002013 -0.002013
72478.016054 -0.523376 0.110657 -10.030884 -0.005369 -0.001342 -0.002517
72478.025787 -0.550293 0.122620 -10.027893 -0.005704 0.000336 -0.003020
72478.036040 -0.520386 0.170471 -10.030884 -0.004698 0.000336 -0.003691
72478.045772 -0.472534 0.197388 -10.066772 -0.002349 -0.000671 0.000336
72478.056026 -0.466553 0.152527 -10.060791 0.001007 0.001678 -0.000671
72478.067136 -0.508423 0.104675 -10.024902 -0.003020 0.002013 -0.004698
72478.079636 -0.532349 0.119629 -10.045837 -0.004027 -0.000336 -0.005033
72478.086064 -0.523376 0.131592 -10.069763 -0.003691 0.000336 -0.002349
72478.096022 -0.490479 0.143555 -10.042847 -0.003691 0.001007 -0.000671
72478.105782 -0.457581 0.152527 -10.015930 -0.005033 0.002013 -0.001007
72478.116034 -0.472534 0.125610 -10.021912 -0.004362 0.003356 -0.001007
72478.125768 -0.490479 0.143555 -10.081726 -0.001342 0.001678 -0.000671
72478.136019 -0.484497 0.173462 -10.081726 -0.000671 0.000671 -0.001007
72478.145753 -0.484497 0.125610 -10.003967 -0.003356 0.000671 -0.001678
72478.156032 -0.472534 0.110657 -10.018921 -0.003020 -0.000503 -0.001342
72478.167118 -0.448608 0.179443 -10.081726 -0.004362 -0.001678 -0.001342
72478.179610 -0.436646 0.182434 -10.057800 -0.006376 0.000336 -0.002349
72478.186046 -0.448608 0.134583 -10.021912 -0.004698 0.000671 -0.001007
72478.196029 -0.487488 0.131592 -10.024902 -0.001007 0.001510 -0.002013
72478.205762 -0.505432 0.158508 -10.039856 -0.002349 0.002349 -0.002013
72478.216018 -0.481506 0.203369 -10.057800 -0.005033 0.001342 -0.003020
72478.225748 -0.439636 0.194397 -10.045837 -0.004698 0.000336 -0.002684
72478.236027 -0.460571 0.140564 -10.033875 -0.004698 0.000671 -0.002013
72478.245760 -0.496460 0.143555 -10.072754 -0.002684 -0.001342 -0.001342
72478.256013 -0.499451 0.164490 -10.075745 -0.001342 0.002013 -0.002684
72478.267099 -0.466553 0.182434 -10.024902 -0.004027 0.001007 -0.003691
72478.279603 -0.442627 0.200378 -10.015930 -0.002349 -0.004027 -0.000671
72478.286026 -0.460571 0.164490 -10.045837 -0.003020 -0.000671 -0.002684
72478.296012 -0.490479 0.164490 -10.066772 -0.000671 -0.000671 -0.002349
72478.305742 -0.517395 0.212341 -10.042847 -0.001007 -0.000336 -0.001342
72478.315996 -0.526367 0.176453 -10.006958 -0.007718 0.001678 -0.000336
72478.325728 -0.505432 0.143555 -10.042847 -0.003691 0.000671 -0.001510
72478.335984 -0.484497 0.194397 -10.087708 -0.001678 0.000671 -0.002684
72478.345738 -0.475525 0.191406 -10.057800 -0.003691 -0.000895 -0.002684
72478.355994 -0.484497 0.152527 -10.021912 -0.005033 -0.002461 -0.003356
72478.367079 -0.511414 0.143555 -10.036865 -0.003691 -0.004027 -0.002684
72478.379583 -0.532349 0.152527 -10.051819 -0.001007 0.000671 -0.002349
72478.386006 -0.505432 0.170471 -10.045837 -0.001678 0.004027 -0.001678
72478.395990 -0.466553 0.173462 -10.033875 -0.003020 0.002684 -0.001007
72478.405724 -0.463562 0.113647 -10.033875 -0.003020 0.001342 -0.000671
72478.416002 -0.490479 0.092712 -10.069763 -0.003356 0.000336 -0.002349
72478.425736 -0.517395 0.125610 -10.060791 -0.004362 0.001342 -0.000336
72478.435988 -0.505432 0.152527 -9.997986 -0.006376 0.002013 -0.000336
72478.445720 -0.460571 0.182434 -10.009949 -0.001678 0.002013 -0.000336
72478.455974 -0.442627 0.164490 -10.054810 -0.001007 0.001678 0.000000
72478.467061 -0.454590 0.113647 -10.060791 -0.001678 0.001678 0.000336
72478.479568 -0.472534 0.155518 -10.054810 -0.001678 0.000671 -0.003691
72478.485986 -0.478516 0.155518 -10.045837 -0.006040 -0.000671 -0.004027
72478.495971 -0.481506 0.104675 -10.042847 -0.004362 -0.002013 -0.001007
72478.505704 -0.466553 0.143555 -10.075745 -0.003020 -0.000671 -0.001007
72478.515983 -0.445618 0.170471 -10.081726 -0.004027 0.000671 -0.000336
72478.525716 -0.442627 0.125610 -10.060791 -0.002684 0.004362 0.000336
72478.535972 -0.466553 0.125610 -10.045837 -0.001678 0.001342 -0.003691
72478.545703 -0.499451 0.149536 -10.024902 -0.005369 -0.001678 -0.002684
72478.555980 -0.490479 0.164490 -10.042847 -0.000671 0.000336 -0.001678
72478.567066 -0.457581 0.206360 -10.069763 -0.001846 -0.001007 -0.004027
72478.579537 -0.460571 0.173462 -10.033875 -0.003020 -0.001007 -0.003020
72478.585968 -0.472534 0.116638 -10.030884 -0.005369 -0.000419 -0.003691
72478.595977 -0.496460 0.128601 -10.075745 -0.005369 0.000168 -0.001678
72478.605710 -0.496460 0.170471 -10.069763 -0.005369 0.000755 -0.002349
72478.615964 -0.466553 0.191406 -10.027893 -0.003691 0.001342 -0.001342
72478.625696 -0.454590 0.173462 -10.015930 -0.001678 0.002349 -0.003020
72478.635976 -0.472534 0.122620 -10.042847 -0.003020 -0.000671 -0.002684
72478.645708 -0.490479 0.143555 -10.084717 -0.003020 -0.000336 -0.001678
72478.655961 -0.514404 0.185425 -10.060791 -0.003020 -0.000336 -0.000671
72478.667046 -0.520386 0.128601 -10.003967 -0.003356 -0.000336 0.000336
72478.679544 -0.493469 0.128601 -10.042847 -0.004027 0.003020 -0.002349
72478.685974 -0.460571 0.200378 -10.102661 -0.003356 0.002013 -0.002013
72478.695960 -0.445618 0.170471 -10.069763 -0.002684 0.000671 -0.001342
72478.705692 -0.454590 0.158508 -10.045837 -0.001007 0.000336 -0.000671
72478.715944 -0.493469 0.170471 -10.060791 -0.004698 0.000671 -0.002013
72478.725704 -0.526367 0.143555 -10.054810 -0.006711 0.002013 -0.002349
72478.735956 -0.484497 0.191406 -10.045837 -0.003020 0.002349 -0.000671
72478.745688 -0.448608 0.221313 -10.036865 -0.000336 -0.001678 -0.002013
72478.755942 -0.475525 0.149536 -10.036865 -0.004027 -0.000671 0.000336
72478.767028 -0.487488 0.116638 -10.057800 -0.006040 -0.001007 -0.002684
72478.779525 -0.499451 0.152527 -10.066772 -0.003020 0.000336 -0.004362
72478.785953 -0.493469 0.161499 -10.054810 -0.003691 0.002349 0.000336
72478.795939 -0.445618 0.197388 -10.051819 -0.004027 0.001342 0.001342
72478.805698 -0.430664 0.194397 -10.024902 -0.004698 -0.000671 -0.001678
72478.815951 -0.463562 0.137573 -10.030884 -0.002349 0.003020 -0.007047
72478.825684 -0.502441 0.155518 -10.087708 -0.001678 -0.000671 -0.005704
72478.835938 -0.514404 0.164490 -10.057800 -0.001007 -0.001007 -0.003691
72478.845670 -0.505432 0.119629 -9.986023 -0.003020 0.000671 -0.001678
72478.855948 -0.478516 0.146545 -10.033875 -0.005033 0.000503 -0.001342
72478.867034 -0.457581 0.164490 -10.087708 -0.003020 0.000336 -0.001007
72478.879506 -0.457581 0.128601 -10.033875 -0.003691 0.001007 -0.002349
72478.885935 -0.472534 0.131592 -10.006958 -0.001342 0.001678 -0.003691
72478.895920 -0.517395 0.110657 -10.045837 -0.002684 0.002684 -0.002349
72478.905678 -0.523376 0.119629 -10.081726 -0.002684 0.003356 -0.002013
72478.915934 -0.466553 0.203369 -10.042847 -0.002013 -0.000336 -0.001678
72478.925666 -0.439636 0.194397 -9.997986 -0.006040 -0.000336 -0.003020
72478.935919 -0.451599 0.110657 -10.045837 -0.003356 -0.002684 -0.001678
72478.945650 -0.487488 0.122620 -10.108643 -0.001678 -0.000671 -0.000336
72478.955930 -0.517395 0.131592 -10.069763 -0.001678 0.001007 -0.001007
72478.967014 -0.487488 0.131592 -10.024902 -0.005704 0.001678 -0.002013
72478.979512 -0.433655 0.203369 -10.042847 -0.003356 0.001846 -0.002684
72478.985942 -0.442627 0.182434 -10.048828 -0.004027 0.002013 -0.003691
72478.995928 -0.475525 0.131592 -10.054810 -0.001342 0.002013 -0.002349
72479.000000 -0.486787 0.145357 -10.061066 -0.001202 0.000048 -0.001506
72479.005660 -0.502441 0.164490 -10.069763 -0.001007 -0.002684 -0.000336
72479.015914 -0.529358 0.158508 -10.039856 -0.004027 0.000336 0.000336
72479.025635 -0.523376 0.131592 -10.024902 -0.004362 0.000336 -0.003020
72479.035925 -0.487488 0.179443 -10.054810 -0.002349 0.001007 -0.002349
72479.045650 -0.448608 0.194397 -10.060791 -0.005033 0.002349 -0.003523
72479.055907 -0.448608 0.164490 -10.048828 -0.004362 0.000336 -0.004698
72479.067000 -0.475525 0.146545 -10.048828 -0.002684 -0.001007 -0.000671
72479.079492 -0.520386 0.116638 -10.039856 -0.005369 0.004027 0.001342
72479.085918 -0.508423 0.164490 -10.057800 -0.004362 0.001342 0.001342
72479.095898 -0.463562 0.236267 -10.057800 -0.001007 0.001510 -0.001678
72479.105685 -0.463562 0.185425 -10.018921 -0.003691 0.001678 -0.005033
72479.115917 -0.490479 0.125610 -10.027893 -0.004362 -0.001342 -0.001678
72479.125646 -0.502441 0.143555 -10.072754 -0.001342 -0.001342 -0.002013
72479.135907 -0.520386 0.146545 -10.060791 -0.004362 -0.000336 -0.002013
72479.145635 -0.487488 0.179443 -10.030884 -0.003020 0.000671 -0.001342
72479.155891 -0.442627 0.197388 -10.033875 -0.003356 0.002013 -0.001342
72479.167026 -0.460571 0.140564 -10.036865 -0.001007 0.001007 -0.001342
72479.179470 -0.478516 0.134583 -10.072754 -0.001678 0.000000 -0.004027
72479.185900 -0.496460 0.167480 -10.060791 -0.004027 -0.001007 -0.004027
72479.195884 -0.511414 0.143555 -10.006958 -0.002349 -0.000671 -0.001342
72479.205616 -0.493469 0.143555 -10.021912 -0.003356 0.003020 -0.000839
72479.215898 -0.466553 0.179443 -10.072754 -0.005369 0.002181 -0.000336
72479.225626 -0.451599 0.170471 -10.066772 -0.005704 0.001342 -0.000671
72479.235886 -0.460571 0.146545 -10.039856 -0.001342 0.002013 -0.002349
72479.245616 -0.493469 0.134583 -10.042847 -0.001678 -0.001342 -0.005033
72479.255874 -0.517395 0.125610 -10.045837 -0.003356 -0.001678 -0.002013
72479.266987 -0.496460 0.176453 -10.048828 -0.005033 0.001342 -0.000336
72479.279480 -0.478516 0.218323 -10.036865 -0.005704 0.003356 -0.001007
72479.285907 -0.487488 0.146545 -10.018921 -0.005369 0.001678 -0.001007
72479.295894 -0.481506 0.101685 -10.051819 -0.003020 -0.001678 -0.000671
72479.305622 -0.505432 0.131592 -10.075745 -0.004362 -0.001007 -0.001342
72479.315877 -0.517395 0.143555 -10.057800 -0.000671 0.001678 -0.005369
72479.325608 -0.466553 0.191406 -10.027893 -0.001678 0.003020 -0.006376
72479.335896 -0.436646 0.188416 -10.009949 -0.004362 0.001007 0.000336
72479.345600 -0.469543 0.098694 -10.045837 -0.003020 -0.001007 0.002013
72479.355874 -0.505432 0.116638 -10.096680 -0.002684 0.000336 -0.002684
72479.366956 -0.508423 0.173462 -10.048828 -0.002684 0.001007 -0.000671
72479.379453 -0.502441 0.134583 -9.986023 -0.004027 0.001678 0.000336
72479.385881 -0.469543 0.140564 -10.063782 -0.003356 0.000503 -0.003691
72479.395867 -0.445618 0.185425 -10.117615 -0.001007 -0.000671 -0.003356
72479.405598 -0.439636 0.155518 -10.045837 -0.001342 0.002349 -0.004027
72479.415852 -0.457581 0.125610 -10.006958 -0.002684 0.003020 -0.005033
72479.425594 -0.505432 0.125610 -10.051819 -0.003691 -0.002684 0.000671
72479.435840 -0.526367 0.119629 -10.081726 -0.005704 -0.002013 0.002013
72479.445602 -0.490479 0.179443 -10.039856 -0.004027 0.003691 -0.000671
72479.455861 -0.460571 0.212341 -10.000977 -0.003020 0.000336 -0.000336
72479.466936 -0.475525 0.149536 -10.033875 -0.003020 0.000671 -0.001342
72479.479442 -0.502441 0.116638 -10.075745 -0.002684 0.001007 -0.006376
72479.485864 -0.532349 0.119629 -10.045837 -0.003020 -0.001007 -0.002684
72479.495850 -0.517395 0.134583 -10.024902 -0.002684 0.001342 -0.000671
72479.505588 -0.478516 0.209351 -10.036865 -0.005704 -0.002349 -0.001510
72479.515833 -0.448608 0.191406 -10.018921 -0.006376 -0.000671 -0.002349
72479.525597 -0.457581 0.116638 -10.021912 -0.001342 0.000671 -0.003356
72479.535857 -0.484497 0.152527 -10.084717 -0.002013 0.000671 -0.000671
72479.545592 -0.514404 0.167480 -10.072754 -0.002181 0.002349 -0.001342
72479.555833 -0.526367 0.113647 -10.003967 -0.002349 0.002013 -0.003020
72479.566916 -0.484497 0.155518 -10.030884 -0.004698 0.002684 -0.000671
72479.579413 -0.463562 0.203369 -10.084717 -0.004027 0.001678 0.002013
72479.585844 -0.463562 0.146545 -10.069763 -0.003356 -0.000336 0.000336
72479.595827 -0.451599 0.140564 -10.045837 -0.002684 -0.002013 -0.005369
72479.605594 -0.511414 0.146545 -10.021912 -0.004362 -0.001342 -0.003020
72479.615840 -0.535339 0.152527 -10.051819 -0.003691 0.003356 -0.000671
72479.625583 -0.490479 0.215332 -10.072754 -0.002684 0.003020 -0.001342
72479.635825 -0.454590 0.212341 -10.030884 -0.003020 0.000671 -0.002013
72479.645558 -0.463562 0.125610 -10.012939 -0.002684 0.001566 -0.002684
72479.655812 -0.487488 0.104675 -10.078735 -0.002349 0.002461 -0.003020
72479.666924 -0.493469 0.137573 -10.096680 -0.000336 0.003356 -0.003691
72479.679396 -0.481506 0.167480 -10.033875 -0.001678 -0.000336 -0.000671
72479.685824 -0.448608 0.200378 -10.015930 -0.003020 -0.001007 -0.001342
72479.695810 -0.448608 0.158508 -10.033875 -0.005033 -0.000336 -0.001678
72479.705568 -0.469543 0.125610 -10.069763 -0.006376 0.001342 -0.000336
72479.715822 -0.481506 0.155518 -10.081726 -0.002349 -0.000671 -0.002013
72479.725554 -0.499451 0.143555 -10.009949 -0.002349 -0.000336 -0.001846
72479.735807 -0.502441 0.122620 -10.003967 -0.002013 0.000671 -0.001678
72479.745541 -0.493469 0.164490 -10.072754 -0.002684 -0.000336 -0.005704
72479.755817 -0.475525 0.170471 -10.057800 -0.007382 0.003356 -0.004698
72479.766904 -0.469543 0.143555 -10.000977 -0.004698 0.001342 -0.005369
72479.779401 -0.499451 0.143555 -10.036865 -0.003691 -0.003356 0.000336
72479.785831 -0.550293 0.104675 -10.069763 -0.004027 0.000671 0.001342
72479.795816 -0.529358 0.128601 -10.030884 -0.000336 0.002684 -0.005369
72479.805548 -0.457581 0.215332 -10.009949 -0.002349 0.004027 -0.004698
72479.815803 -0.448608 0.191406 -10.039856 -0.006376 -0.000503 0.000336
72479.825534 -0.469543 0.131592 -10.078735 -0.005704 -0.005033 -0.001007
72479.835787 -0.505432 0.122620 -10.060791 -0.001007 0.001342 -0.002349
72479.845547 -0.529358 0.122620 -10.027893 -0.002013 0.003691 -0.002013
72479.855799 -0.499451 0.146545 -10.042847 -0.005369 0.000671 -0.003356
72479.866886 -0.454590 0.194397 -10.048828 -0.006040 0.000503 -0.001342
72479.879388 -0.454590 0.149536 -10.009949 -0.004362 0.000336 -0.004698
72479.885812 -0.475525 0.125610 -10.051819 -0.003691 0.001007 -0.001678
72479.895798 -0.499451 0.167480 -10.087708 -0.002013 0.001678 0.000336
72479.905531 -0.514404 0.140564 -10.015930 -0.002013 -0.001007 -0.003020
72479.915783 -0.502441 0.116638 -9.997986 -0.002349 -0.000336 -0.001174
72479.925542 -0.469543 0.173462 -10.075745 -0.004698 -0.000839 0.000671
72479.935796 -0.466553 0.185425 -10.063782 -0.006040 -0.001342 -0.002684
72479.945526 -0.472534 0.155518 -10.015930 -0.002684 0.003020 -0.005033
72479.955780 -0.487488 0.128601 -10.018921 -0.001678 0.003356 -0.004027
72479.966894 -0.511414 0.107666 -10.048828 -0.004362 0.000336 -0.001342
72479.979367 -0.502441 0.167480 -10.066772 -0.005369 0.003356 -0.001342
72479.985793 -0.466553 0.221313 -10.042847 -0.004362 0.001007 -0.003020
72479.995778 -0.460571 0.167480 -10.015930 -0.002349 -0.002013 -0.004027
72480.000000 -0.464463 0.150614 -10.032796 -0.001767 -0.001286 -0.002717
72480.005510 -0.469543 0.128601 -10.054810 -0.001007 -0.000336 -0.001007
72480.015765 -0.496460 0.134583 -10.087708 -0.001678 0.001342 -0.000336
72480.025525 -0.511414 0.140564 -10.045837 -0.005704 0.001174 -0.004027
72480.035780 -0.475525 0.179443 -10.012939 -0.004027 0.001007 -0.005033
72480.045509 -0.454590 0.200378 -10.024902 -0.002013 0.002349 -0.002684
72480.055774 -0.469543 0.155518 -10.060791 -0.004362 -0.001342 -0.000336
72480.066851 -0.517395 0.161499 -10.075745 -0.002013 -0.003020 -0.000336
72480.079350 -0.550293 0.185425 -10.012939 -0.001007 -0.003020 -0.001342
72480.085778 -0.532349 0.140564 -9.968079 -0.002684 -0.003020 -0.005369
72480.095763 -0.508423 0.152527 -10.033875 -0.004362 -0.001342 -0.004362
72480.105522 -0.481506 0.191406 -10.084717 -0.004027 0.004027 -0.002013
72480.115774 -0.469543 0.152527 -10.036865 -0.005704 0.002684 -0.002684
72480.125508 -0.469543 0.128601 -10.024902 -0.003691 0.001007 -0.001678
72480.135772 -0.508423 0.128601 -10.051819 -0.002013 -0.000336 -0.002349
72480.145499 -0.532349 0.134583 -10.045837 -0.001007 0.000671 -0.000336
72480.155772 -0.502441 0.197388 -10.039856 -0.001342 0.002684 0.001007
72480.166857 -0.481506 0.188416 -10.045837 -0.002013 0.001678 -0.003020
72480.179357 -0.493469 0.104675 -10.054810 -0.004362 -0.002013 -0.002013
72480.185783 -0.511414 0.107666 -10.060791 -0.003356 0.000336 -0.001678
72480.195768 -0.514404 0.131592 -10.048828 -0.003691 0.002684 -0.004698
72480.205502 -0.484497 0.143555 -10.045837 -0.003020 0.002013 -0.001678
72480.215754 -0.454590 0.179443 -10.051819 -0.003691 0.001342 -0.001678
72480.225486 -0.436646 0.152527 -10.051819 -0.004027 0.001678 -0.002013
72480.235765 -0.460571 0.104675 -10.057800 -0.002684 0.001566 -0.002517
72480.245498 -0.493469 0.155518 -10.072754 -0.002013 0.001454 -0.003020
72480.255752 -0.499451 0.173462 -10.024902 -0.003691 0.001342 -0.001007
72480.266838 -0.487488 0.122620 -9.986023 -0.006711 0.000671 0.000336
72480.279335 -0.457581 0.152527 -10.063782 -0.004698 0.002684 -0.001342
72480.285763 -0.433655 0.170471 -10.105652 -0.002684 -0.000671 -0.003356
72480.295749 -0.433655 0.131592 -10.048828 -0.004698 -0.001342 -0.001007
72480.305482 -0.457581 0.134583 -10.003967 -0.003691 -0.001007 -0.000336
72480.315735 -0.493469 0.137573 -10.015930 -0.002349 -0.000671 -0.004362
72480.325493 -0.472534 0.173462 -10.066772 -0.001342 -0.000336 -0.005704
72480.335749 -0.433655 0.212341 -10.063782 -0.001678 0.001007 -0.000336
72480.345478 -0.436646 0.164490 -10.012939 -0.003691 0.001678 0.001007
72480.355731 -0.469543 0.116638 -10.039856 -0.007047 -0.001678 -0.003356
72480.366844 -0.502441 0.152527 -10.099670 -0.006376 0.001342 -0.001007
72480.379315 -0.508423 0.167480 -10.054810 -0.002684 0.002349 -0.001007
72480.385745 -0.475525 0.167480 -9.992004 -0.002349 0.000168 -0.002684
72480.395730 -0.451599 0.188416 -10.018921 -0.002349 -0.002013 -0.004362
72480.405462 -0.472534 0.149536 -10.066772 -0.004362 0.002013 -0.001007
72480.415742 -0.499451 0.152527 -10.081726 -0.002684 -0.001342 -0.000671
72480.425474 -0.511414 0.194397 -10.039856 -0.003356 -0.003691 -0.000336
72480.435727 -0.520386 0.152527 -10.009949 -0.001678 0.001678 -0.005033
72480.445461 -0.508423 0.155518 -10.063782 -0.002349 0.002013 -0.002684
72480.455714 -0.487488 0.212341 -10.072754 -0.003356 0.000336 -0.001342
72480.466798 -0.484497 0.185425 -10.015930 -0.005704 0.000671 -0.001007
72480.479298 -0.505432 0.143555 -10.039856 -0.005369 0.001007 -0.002349
72480.485726 -0.535339 0.149536 -10.069763 -0.002013 0.003691 -0.002349
72480.495712 -0.544312 0.158508 -10.030884 -0.003356 0.000503 -0.001007
72480.505470 -0.490479 0.185425 -10.033875 -0.002349 -0.002684 -0.003356
72480.515722 -0.451599 0.182434 -10.063782 -0.004362 -0.001174 -0.001007
72480.525454 -0.472534 0.143555 -10.063782 -0.003020 0.000336 -0.002349
72480.535708 -0.499451 0.131592 -10.051819 -0.002852 0.000671 -0.004027
72480.545466 -0.508423 0.140564 -10.054810 -0.002684 -0.002349 -0.001342
72480.555719 -0.490479 0.149536 -10.057800 -0.004698 -0.001007 -0.001007
72480.566803 -0.457581 0.170471 -10.036865 -0.003356 0.001342 -0.001007
72480.579302 -0.439636 0.131592 -10.012939 -0.001342 0.001342 -0.001007
72480.585731 -0.448608 0.122620 -10.063782 -0.003020 0.001007 -0.000671
72480.595717 -0.478516 0.170471 -10.102661 -0.005369 0.000839 -0.002013
72480.605450 -0.484497 0.128601 -10.024902 -0.004027 0.000671 -0.004027
72480.615704 -0.481506 0.098694 -9.986023 -0.000671 0.000839 -0.001678
72480.625436 -0.457581 0.167480 -10.087708 -0.003356 0.001007 -0.002349
72480.635714 -0.451599 0.182434 -10.111633 -0.005033 0.002684 0.000336
72480.645448 -0.454590 0.131592 -10.030884 -0.003691 -0.000839 -0.001510
72480.655702 -0.469543 0.125610 -9.983032 -0.002013 -0.004362 -0.003356
72480.666787 -0.499451 0.149536 -10.024902 -0.001007 0.001342 -0.002013
72480.679286 -0.493469 0.179443 -10.072754 -0.004027 0.000671 -0.003691
72480.685714 -0.463562 0.179443 -10.030884 -0.004027 0.001342 -0.002013
72480.695699 -0.448608 0.122620 -10.003967 -0.003020 0.002349 0.000336
72480.705431 -0.475525 0.101685 -10.078735 -0.003020 -0.002684 -0.003691
72480.715711 -0.496460 0.146545 -10.117615 -0.002013 -0.000839 -0.003356
72480.725442 -0.475525 0.161499 -10.033875 -0.003691 0.001007 -0.005033
72480.735697 -0.448608 0.164490 -9.994995 -0.003691 0.000671 -0.004698
72480.745428 -0.448608 0.158508 -10.060791 -0.004362 -0.001342 -0.000336
72480.755682 -0.472534 0.143555 -10.105652 -0.005704 0.003020 -0.000336
72480.766767 -0.514404 0.170471 -10.054810 -0.001678 0.000336 -0.003691
72480.779263 -0.538330 0.173462 -9.986023 -0.002684 -0.000336 -0.003020
72480.785693 -0.529358 0.140564 -10.006958 -0.002013 -0.000671 0.001007
72480.795678 -0.508423 0.176453 -10.087708 -0.001678 0.000839 0.000671
72480.805410 -0.478516 0.200378 -10.087708 -0.005369 0.002349 -0.002013
72480.815690 -0.481506 0.158508 -10.018921 -0.006711 0.000671 -0.004027
72480.825422 -0.502441 0.155518 -10.039856 -0.002684 0.001007 0.000336
72480.835676 -0.532349 0.158508 -10.069763 -0.001342 -0.000671 -0.001007
72480.845409 -0.526367 0.182434 -10.030884 -0.004027 -0.000671 -0.000839
72480.855660 -0.484497 0.203369 -10.006958 -0.002684 0.001678 -0.000671
72480.866747 -0.475525 0.149536 -10.030884 -0.003691 -0.000336 -0.002684
72480.879245 -0.499451 0.104675 -10.066772 -0.002684 0.000224 -0.004698
72480.885674 -0.520386 0.131592 -10.048828 -0.000336 0.000783 -0.003020
72480.895659 -0.511414 0.158508 -10.006958 -0.001678 0.001342 -0.002013
72480.905418 -0.472534 0.176453 -10.027893 -0.003020 0.001510 -0.000671
72480.915671 -0.448608 0.194397 -10.066772 -0.005704 0.001678 -0.001678
72480.925403 -0.475525 0.134583 -10.030884 -0.006711 0.001846 -0.004027
72480.935684 -0.499451 0.134583 -10.027893 -0.003356 0.002013 -0.001342
72480.945390 -0.505432 0.191406 -10.036865 -0.004027 0.000336 0.000336
72480.955668 -0.508423 0.158508 -10.012939 -0.003020 0.001510 0.001007
72480.966754 -0.490479 0.149536 -10.027893 -0.004027 0.002684 -0.001342
72480.979251 -0.463562 0.182434 -10.060791 -0.004027 0.003356 0.000336
72480.985682 -0.439636 0.152527 -10.066772 -0.000671 -0.000671 -0.005033
72480.995635 -0.463562 0.140564 -10.069763 -0.004362 -0.003020 -0.005369
72481.000000 -0.479608 0.141901 -10.060403 -0.004062 -0.002720 -0.004619
72481.005397 -0.499451 0.143555 -10.048828 -0.003691 -0.002349 -0.003691
72481.015659 -0.496460 0.149536 -10.036865 -0.003020 -0.000336 -0.002013
72481.025385 -0.463562 0.185425 -10.051819 -0.003691 0.002684 -0.002684
72481.035634 -0.460571 0.158508 -10.024902 -0.003356 0.002349 -0.000336
72481.045395 -0.475525 0.104675 -10.018921 -0.003020 -0.000671 -0.001678
72481.055659 -0.493469 0.104675 -10.075745 -0.003020 -0.002013 -0.001342
72481.066733 -0.514404 0.125610 -10.084717 -0.002013 0.000671 -0.003020
72481.079231 -0.472534 0.131592 -10.048828 -0.003691 0.001007 -0.001342
72481.085667 -0.442627 0.161499 -10.024902 -0.004698 0.001007 0.001007
72481.095640 -0.466553 0.158508 -10.033875 -0.005369 0.001342 -0.000671
72481.105381 -0.496460 0.149536 -10.066772 -0.002013 0.000671 -0.004362
72481.115635 -0.523376 0.167480 -10.060791 -0.003523 0.000671 -0.002349
72481.125389 -0.529358 0.131592 -10.003967 -0.005033 -0.001678 0.001007
72481.135638 -0.511414 0.125610 -10.012939 -0.003356 -0.002013 -0.001342
72481.145378 -0.481506 0.206360 -10.066772 -0.001678 0.002013 -0.002684
72481.155635 -0.475525 0.197388 -10.036865 -0.007047 0.003020 -0.004362
72481.166713 -0.478516 0.125610 -10.021912 -0.004027 0.001007 -0.003020
72481.179210 -0.508423 0.116638 -10.051819 0.001342 0.002013 -0.000336
72481.185644 -0.520386 0.152527 -10.057800 -0.002013 0.000671 -0.000336
72481.195633 -0.490479 0.200378 -10.048828 -0.003356 -0.000336 -0.001678
72481.205359 -0.457581 0.200378 -10.039856 -0.004362 0.001007 -0.003020
72481.215638 -0.451599 0.146545 -10.048828 -0.004027 0.000336 -0.002349
72481.225370 -0.487488 0.149536 -10.063782 -0.002349 0.000671 -0.000671
72481.235629 -0.502441 0.152527 -10.066772 -0.003691 0.000671 -0.001007
72481.245357 -0.475525 0.152527 -10.051819 -0.003691 0.002349 -0.002349
72481.255638 -0.460571 0.182434 -10.030884 -0.003356 0.001007 -0.002349
72481.266721 -0.463562 0.170471 -10.024902 -0.004698 0.001007 -0.002684
72481.279192 -0.472534 0.146545 -10.045837 -0.003020 0.003356 -0.000336
72481.285628 -0.496460 0.176453 -10.057800 -0.004362 0.002013 -0.001342
72481.295639 -0.490479 0.164490 -10.024902 -0.005033 0.000671 -0.001342
72481.305366 -0.475525 0.119629 -10.015930 -0.004698 -0.002013 -0.002349
72481.315625 -0.466553 0.161499 -10.060791 -0.004027 -0.002349 -0.003691
72481.325351 -0.460571 0.194397 -10.060791 -0.003356 -0.002684 -0.004362
72481.335604 -0.451599 0.152527 -10.036865 -0.004362 -0.001007 -0.003691
72481.345361 -0.475525 0.125610 -10.030884 -0.003356 0.002013 -0.000671
72481.355624 -0.499451 0.149536 -10.030884 -0.002349 0.001342 -0.002181
72481.366701 -0.481506 0.188416 -10.063782 -0.003020 0.002013 -0.003691
72481.379172 -0.457581 0.185425 -10.078735 -0.004698 0.000336 -0.003356
72481.385602 -0.460571 0.137573 -10.045837 -0.004362 -0.003356 -0.000671
72481.395622 -0.472534 0.125610 -10.054810 -0.001678 -0.001007 -0.002349
72481.405344 -0.493469 0.152527 -10.087708 -0.003691 0.001678 -0.002013
72481.415599 -0.499451 0.161499 -10.054810 -0.004027 0.002684 -0.001342
72481.425331 -0.478516 0.182434 -10.009949 -0.001007 0.001342 -0.001342
72481.435585 -0.484497 0.179443 -10.018921 -0.001007 0.001342 -0.002013
72481.445343 -0.511414 0.125610 -10.060791 -0.005033 -0.000336 -0.002684
72481.455596 -0.526367 0.161499 -10.075745 -0.004027 -0.000336 -0.000671
72481.466681 -0.526367 0.197388 -10.006958 -0.005033 0.000671 -0.003020
72481.479180 -0.514404 0.134583 -9.983032 -0.005704 0.000671 -0.001007
72481.485608 -0.508423 0.131592 -10.069763 -0.001678 -0.002349 -0.001007
72481.495594 -0.496460 0.182434 -10.087708 -0.002684 -0.000671 -0.002684
72481.505327 -0.487488 0.158508 -10.009949 -0.002013 0.001678 -0.003020
72481.515577 -0.502441 0.125610 -10.018921 -0.002013 -0.000336 -0.001342
72481.525338 -0.532349 0.137573 -10.069763 -0.005369 -0.001007 -0.002013
72481.535590 -0.508423 0.167480 -10.057800 -0.002349 0.002349 0.000336
72481.545324 -0.463562 0.176453 -10.003967 -0.002013 0.004698 -0.000839
72481.555577 -0.451599 0.155518 -10.012939 -0.004027 0.000671 -0.002013
72481.566669 -0.466553 0.149536 -10.087708 -0.000671 0.000839 -0.002013
72481.579161 -0.514404 0.155518 -10.075745 -0.002013 0.001007 -0.001007
72481.585588 -0.526367 0.137573 -9.994995 -0.006376 0.000336 -0.002349
72481.595574 -0.469543 0.164490 -10.009949 -0.002349 -0.001342 -0.004698
72481.605307 -0.442627 0.188416 -10.063782 -0.003356 -0.001678 -0.002013
72481.615586 -0.445618 0.140564 -10.051819 -0.005033 0.001007 -0.001342
72481.625319 -0.463562 0.143555 -10.045837 0.000671 -0.000336 -0.002181
72481.635573 -0.478516 0.179443 -10.069763 -0.001342 -0.001007 -0.003020
72481.645305 -0.487488 0.116638 -10.048828 -0.006376 0.001007 -0.004027
72481.655584 -0.463562 0.119629 -10.039856 -0.003691 0.001342 0.003020
72481.666647 -0.436646 0.200378 -10.060791 -0.002349 0.000336 0.000336
72481.679141 -0.433655 0.161499 -10.075745 -0.003691 0.000336 -0.003020
72481.685571 -0.445618 0.128601 -10.078735 -0.003020 -0.000671 -0.004027
72481.695555 -0.469543 0.137573 -10.048828 -0.003691 0.000336 -0.000336
72481.705287 -0.484497 0.140564 -10.036865 -0.004698 0.003020 -0.001007
72481.715567 -0.475525 0.185425 -10.057800 -0.004362 0.001174 -0.001678
72481.725299 -0.457581 0.197388 -10.042847 -0.003691 -0.000671 -0.003020
72481.735552 -0.472534 0.131592 -10.015930 -0.001007 0.001007 -0.003691
72481.745285 -0.493469 0.110657 -10.057800 -0.002013 0.002684 -0.003691
72481.755565 -0.511414 0.146545 -10.087708 -0.005704 0.001678 -0.001007
72481.766648 -0.496460 0.167480 -10.045837 -0.004027 -0.001678 -0.000839
72481.779146 -0.466553 0.179443 -10.024902 -0.003691 -0.000336 -0.000671
72481.785576 -0.472534 0.152527 -10.042847 -0.002013 0.001342 -0.002013
72481.795562 -0.499451 0.143555 -10.078735 -0.003020 0.002684 -0.003691
72481.805294 -0.526367 0.176453 -10.054810 -0.002013 0.001342 -0.002684
72481.815547 -0.535339 0.134583 -9.977051 -0.003691 0.002013 -0.001007
72481.825281 -0.517395 0.110657 -9.994995 -0.004027 -0.000336 -0.001678
72481.835558 -0.493469 0.161499 -10.087708 -0.002013 -0.001846 -0.003020
72481.845293 -0.475525 0.158508 -10.090698 -0.005033 -0.003356 -0.001007
72481.855543 -0.487488 0.134583 -10.018921 -0.004027 -0.000671 -0.000336
72481.866638 -0.511414 0.146545 -10.006958 -0.003020 0.002684 -0.002349
72481.879129 -0.520386 0.155518 -10.045837 -0.002349 0.000336 -0.000336
72481.885557 -0.490479 0.191406 -10.066772 -0.002684 -0.000336 -0.002013
72481.895545 -0.457581 0.203369 -10.033875 -0.002349 0.001342 -0.001007
72481.905276 -0.454590 0.134583 -10.018921 -0.002684 0.000671 -0.003020
72481.915528 -0.490479 0.104675 -10.069763 -0.003691 0.002684 -0.003356
72481.925287 -0.514404 0.143555 -10.087708 -0.005033 0.000336 -0.000671
72481.935540 -0.499451 0.155518 -10.024902 -0.002349 0.001007 0.001007
72481.945273 -0.448608 0.167480 -10.024902 -0.001678 0.002013 -0.002349
72481.955525 -0.424683 0.158508 -10.069763 -0.004362 -0.000336 -0.004362
72481.966611 -0.457581 0.107666 -10.069763 -0.004362 0.001007 -0.003356
72481.979108 -0.487488 0.131592 -10.060791 0.000671 -0.000503 -0.004698
72481.985538 -0.490479 0.167480 -10.036865 -0.003356 -0.002013 -0.004698
72481.995522 -0.490479 0.140564 -10.012939 -0.006040 -0.001007 -0.002013
72482.000000 -0.483599 0.143316 -10.026699 -0.004959 -0.000389 -0.001705
72482.005255 -0.475525 0.146545 -10.042847 -0.003691 0.000336 -0.001342
72482.015535 -0.454590 0.167480 -10.060791 -0.004027 0.002013 -0.000671
72482.025268 -0.457581 0.134583 -10.039856 -0.003020 0.003020 -0.000671
72482.035521 -0.478516 0.137573 -10.042847 -0.005369 0.001678 -0.002684
72482.045253 -0.499451 0.149536 -10.036865 -0.005704 -0.001007 -0.005033
72482.055506 -0.490479 0.164490 -10.033875 -0.004362 -0.000336 -0.002349
72482.066617 -0.466553 0.203369 -10.048828 -0.002349 -0.001007 0.000336
72482.079089 -0.475525 0.155518 -10.030884 -0.001342 -0.003020 -0.005033
72482.085519 -0.499451 0.107666 -10.018921 -0.001846 0.000671 -0.004698
72482.095503 -0.505432 0.131592 -10.060791 -0.002349 0.001007 -0.002349
72482.105264 -0.514404 0.143555 -10.057800 -0.005704 0.001342 0.001342
72482.115515 -0.487488 0.158508 -10.030884 -0.005369 0.001342 -0.001342
72482.125248 -0.466553 0.170471 -10.027893 -0.004027 -0.000671 -0.001007
72482.135500 -0.478516 0.131592 -10.054810 -0.003691 -0.000336 -0.002349
72482.145261 -0.511414 0.134583 -10.078735 -0.003356 -0.001342 -0.003691
72482.155513 -0.532349 0.170471 -10.039856 -0.003356 -0.001678 -0.002684
72482.166599 -0.520386 0.146545 -9.989014 -0.002684 0.000671 -0.003356
72482.179071 -0.496460 0.137573 -10.045837 -0.001678 -0.001678 -0.002684
72482.185498 -0.484497 0.191406 -10.108643 -0.003020 -0.000671 -0.001007
72482.195485 -0.469543 0.173462 -10.045837 -0.003356 0.002349 -0.004027
72482.205243 -0.481506 0.137573 -10.015930 -0.004027 0.000336 -0.000671
72482.215496 -0.520386 0.149536 -10.063782 -0.002349 0.003691 -0.000671
72482.225229 -0.520386 0.167480 -10.078735 -0.003020 0.000336 0.001007
72482.235483 -0.481506 0.209351 -10.033875 -0.006040 -0.002684 -0.001510
72482.245241 -0.448608 0.197388 -10.018921 -0.005033 0.000336 -0.004027
72482.255493 -0.445618 0.131592 -10.060791 -0.002684 -0.001007 -0.003356
72482.266579 -0.466553 0.128601 -10.096680 -0.001342 -0.000671 -0.004027
72482.279077 -0.481506 0.143555 -10.072754 -0.002349 0.003020 -0.002684
72482.285507 -0.469543 0.134583 -10.030884 -0.004362 0.001007 0.000336
72482.295490 -0.448608 0.167480 -10.030884 -0.003020 0.003691 -0.001342
72482.305224 -0.445618 0.149536 -10.039856 -0.005704 0.001342 -0.003356
72482.315477 -0.466553 0.107666 -10.051819 -0.004362 -0.002349 -0.001342
72482.325235 -0.493469 0.149536 -10.051819 -0.003691 -0.001790 -0.001678
72482.335488 -0.505432 0.158508 -10.018921 -0.002684 -0.001230 -0.003020
72482.345219 -0.478516 0.116638 -10.015930 0.001007 -0.000671 -0.001846
72482.355475 -0.448608 0.149536 -10.066772 -0.003020 0.000671 -0.000671
72482.366585 -0.439636 0.173462 -10.075745 -0.006711 0.000559 -0.004027
72482.379056 -0.448608 0.140564 -10.039856 -0.002684 0.000447 -0.004698
72482.385486 -0.487488 0.122620 -10.027893 -0.000336 0.000336 -0.002013
72482.395472 -0.520386 0.119629 -10.021912 -0.006711 -0.000671 0.000671
72482.405205 -0.508423 0.167480 -10.042847 -0.004027 0.000168 -0.000671
72482.415483 -0.469543 0.209351 -10.057800 -0.000336 0.001007 -0.004362
72482.425217 -0.466553 0.167480 -10.036865 -0.004362 0.000671 -0.002349
72482.435468 -0.478516 0.128601 -10.048828 -0.004698 -0.002013 -0.002684
72482.445202 -0.517395 0.146545 -10.069763 -0.002013 0.000839 -0.002013
72482.455455 -0.526367 0.143555 -10.054810 -0.003356 0.003691 -0.004362
72482.466567 -0.478516 0.185425 -10.027893 -0.002684 0.000336 -0.001678
72482.479039 -0.451599 0.200378 -10.030884 -0.003691 0.001007 -0.001007
72482.485467 -0.469543 0.134583 -10.060791 -0.002349 0.000671 -0.000336
72482.495452 -0.490479 0.146545 -10.081726 -0.001007 -0.001678 -0.003691
72482.505211 -0.517395 0.188416 -10.036865 -0.001678 -0.001007 -0.002013
72482.515465 -0.541321 0.137573 -9.983032 -0.003691 0.001007 -0.000336
72482.525197 -0.511414 0.131592 -10.033875 -0.003691 0.003020 -0.000671
72482.535476 -0.481506 0.182434 -10.075745 -0.002684 0.004027 -0.001678
72482.545209 -0.469543 0.149536 -10.042847 -0.005033 -0.002349 -0.001342
72482.555461 -0.466553 0.131592 -10.027893 -0.005369 -0.000671 -0.003356
72482.566547 -0.493469 0.143555 -10.045837 -0.003691 -0.000336 -0.004698
72482.579019 -0.508423 0.131592 -10.045837 -0.000671 0.000336 -0.001678
72482.585448 -0.466553 0.167480 -10.045837 -0.000336 0.001678 -0.002013
72482.595458 -0.439636 0.185425 -10.054810 -0.003020 0.002684 -0.001678
72482.605191 -0.448608 0.128601 -10.057800 -0.007047 0.000336 -0.000671
72482.615445 -0.442627 0.101685 -10.066772 -0.005369 -0.003356 -0.001678
72482.625177 -0.472534 0.113647 -10.063782 -0.002013 -0.003356 -0.003020
72482.635457 -0.499451 0.131592 -10.051819 -0.003691 0.000336 -0.001678
72482.645189 -0.454590 0.191406 -10.048828 -0.002349 0.002684 0.000671
72482.655443 -0.427673 0.158508 -10.015930 -0.003020 0.002013 -0.002349
72482.666528 -0.448608 0.077759 -10.039856 -0.004698 0.000671 -0.003691
72482.679025 -0.475525 0.131592 -10.096680 -0.001342 0.001007 0.001007
72482.685455 -0.523376 0.167480 -10.045837 -0.005369 0.001342 -0.001342
72482.695439 -0.520386 0.098694 -9.977051 -0.006040 0.000336 -0.002684
72482.705173 -0.478516 0.128601 -10.030884 -0.000671 -0.000671 -0.002349
72482.715424 -0.472534 0.188416 -10.090698 -0.004027 -0.001007 -0.003020
72482.725184 -0.472534 0.140564 -10.057800 -0.006040 -0.001678 -0.002684
72482.735437 -0.478516 0.131592 -10.015930 -0.002684 -0.000503 0.000336
72482.745170 -0.523376 0.143555 -10.033875 -0.002349 0.000671 -0.001678
72482.755423 -0.514404 0.140564 -10.096680 -0.003691 0.001007 -0.004027
72482.766509 -0.454590 0.200378 -10.078735 -0.003356 -0.000336 -0.002013
72482.779007 -0.445618 0.209351 -10.000977 -0.001678 0.001007 0.000671
72482.785435 -0.466553 0.134583 -10.027893 -0.002013 0.000336 0.000671
72482.795421 -0.478516 0.116638 -10.114624 -0.004362 -0.000336 -0.003691
72482.805154 -0.496460 0.137573 -10.096680 -0.004362 -0.001007 -0.003020
72482.815434 -0.496460 0.158508 -10.024902 -0.002684 -0.000671 -0.002349
72482.825166 -0.469543 0.203369 -10.024902 -0.003691 -0.001678 -0.002013
72482.835422 -0.472534 0.185425 -10.030884 -0.003020 0.001342 -0.001342
72482.845151 -0.499451 0.125610 -10.039856 -0.005704 0.003356 -0.000336
72482.855427 -0.511414 0.149536 -10.057800 -0.003356 0.003691 -0.000671
72482.866489 -0.529358 0.170471 -10.015930 -0.002684 0.001678 -0.002013
72482.878987 -0.520386 0.149536 -9.989014 -0.001678 -0.000336 -0.002013
72482.885420 -0.490479 0.176453 -10.051819 -0.003020 0.002517 -0.002013
72482.895401 -0.478516 0.182434 -10.096680 -0.005033 0.005369 -0.002013
72482.905160 -0.463562 0.158508 -10.060791 -0.005033 0.000671 -0.002349
72482.915416 -0.460571 0.185425 -10.009949 -0.003691 0.000336 -0.000336
72482.925145 -0.499451 0.167480 -10.018921 -0.005033 0.000336 -0.001174
72482.935425 -0.517395 0.134583 -10.060791 -0.004027 -0.002684 -0.002013
72482.945156 -0.469543 0.206360 -10.051819 -0.003356 0.003691 -0.001007
72482.955414 -0.433655 0.227295 -10.012939 -0.001678 0.004027 -0.003356
72482.966495 -0.448608 0.134583 -10.042847 -0.004027 -0.001007 -0.004362
72482.978992 -0.472534 0.119629 -10.093689 -0.004698 -0.004027 -0.003691
72482.985425 -0.496460 0.137573 -10.063782 -0.003356 0.000336 -0.003020
72482.995406 -0.493469 0.140564 -10.042847 0.001007 -0.000503 -0.002349
72483.000000 -0.476534 0.167379 -10.048492 0.000373 -0.000899 -0.002982
72483.005141 -0.457581 0.197388 -10.054810 -0.000336 -0.001342 -0.003691
72483.015394 -0.433655 0.182434 -10.024902 -0.003356 -0.000671 -0.000671
72483.025133 -0.451599 0.101685 -10.039856 -0.004698 0.000000 -0.002349
72483.035389 -0.463562 0.125610 -10.105652 -0.003020 0.000671 -0.001678
72483.045138 -0.505432 0.167480 -10.057800 -0.004698 0.002684 0.000336
72483.055391 -0.514404 0.119629 -9.983032 -0.003691 -0.001678 -0.003020
72483.066478 -0.481506 0.128601 -10.027893 -0.002013 -0.003020 -0.001007
72483.078975 -0.472534 0.167480 -10.099670 -0.003356 0.003691 0.001007
72483.085403 -0.478516 0.134583 -10.081726 -0.002349 0.005033 -0.001342
72483.095389 -0.463562 0.134583 -10.012939 -0.004027 -0.001342 -0.002349
72483.105121 -0.487488 0.143555 -10.006958 -0.006711 -0.002013 -0.004362
72483.115374 -0.538330 0.125610 -10.060791 -0.003691 -0.002013 -0.003020
72483.125107 -0.517395 0.182434 -10.069763 -0.001678 0.001007 -0.001678
72483.135386 -0.475525 0.206360 -9.986023 -0.004027 0.003020 -0.002013
72483.145118 -0.472534 0.122620 -9.992004 -0.005033 0.002125 -0.001846
72483.155396 -0.487488 0.098694 -10.105652 -0.000336 0.001230 -0.001678
72483.166457 -0.532349 0.128601 -10.096680 -0.002013 0.000336 -0.003020
72483.178954 -0.538330 0.122620 -10.000977 -0.004362 -0.002013 -0.002349
72483.185384 -0.487488 0.176453 -10.003967 -0.002013 -0.001007 -0.001678
72483.195368 -0.457581 0.188416 -10.042847 -0.004362 0.002349 -0.005033
72483.205127 -0.478516 0.122620 -10.045837 -0.005369 0.000336 -0.001678
72483.215380 -0.502441 0.116638 -10.036865 -0.003356 -0.000336 0.003356
72483.225113 -0.514404 0.155518 -10.027893 -0.003020 0.001007 -0.001342
72483.235367 -0.520386 0.149536 -10.036865 -0.005369 0.000336 -0.006040
72483.245099 -0.490479 0.152527 -10.054810 -0.002684 -0.000112 -0.003020
72483.255352 -0.460571 0.173462 -10.033875 -0.005033 -0.000559 -0.001007
72483.266463 -0.463562 0.155518 -10.027893 -0.005704 -0.001007 -0.001678
72483.278935 -0.466553 0.152527 -10.072754 -0.001342 -0.001007 -0.002013
72483.285365 -0.490479 0.140564 -10.063782 -0.001342 0.002684 -0.003020
72483.295374 -0.511414 0.122620 -10.027893 -0.003020 0.002013 0.001007
72483.305109 -0.472534 0.194397 -10.060791 -0.004027 -0.002684 -0.002684
72483.315361 -0.445618 0.236267 -10.069763 -0.004698 -0.001007 -0.003356
72483.325093 -0.448608 0.152527 -10.030884 -0.005369 -0.000839 -0.002349
72483.335372 -0.448608 0.107666 -10.030884 -0.004362 -0.000671 -0.001342
72483.345104 -0.481506 0.137573 -10.066772 -0.000336 0.001342 -0.003020
72483.355358 -0.511414 0.152527 -10.096680 -0.003020 0.000671 -0.002349
72483.366445 -0.466553 0.206360 -10.057800 -0.002349 0.002013 -0.002013
72483.378917 -0.439636 0.200378 -9.989014 -0.002349 0.001342 -0.001678
72483.385345 -0.454590 0.119629 -10.048828 -0.005033 -0.000336 -0.003356
72483.395357 -0.478516 0.140564 -10.129578 -0.003691 -0.002684 -0.000336
72483.405089 -0.496460 0.197388 -10.027893 -0.001678 0.000168 0.001342
72483.415342 -0.508423 0.161499 -9.923218 -0.006376 0.003020 -0.001678
72483.425075 -0.499451 0.164490 -10.027893 -0.004027 0.003691 -0.004698
72483.435354 -0.484497 0.179443 -10.144531 -0.001342 -0.000671 -0.005704
72483.445087 -0.475525 0.119629 -10.069763 -0.004027 0.000839 -0.003691
72483.455339 -0.472534 0.125610 -9.983032 -0.004027 0.002349 -0.001678
72483.466429 -0.514404 0.140564 -10.024902 -0.003356 0.000671 0.000336
72483.478923 -0.535339 0.116638 -10.093689 -0.006040 0.002013 -0.003691
72483.485352 -0.484497 0.179443 -10.060791 -0.002684 0.001342 -0.004027
72483.495336 -0.448608 0.218323 -9.986023 -0.002349 0.001342 -0.002852
72483.505070 -0.466553 0.137573 -10.036865 -0.003691 -0.000168 -0.001678
72483.515323 -0.487488 0.101685 -10.123596 -0.002684 -0.001678 -0.002684
72483.525080 -0.517395 0.131592 -10.066772 -0.004362 -0.000503 -0.002349
72483.535334 -0.526367 0.131592 -9.994995 -0.002349 0.000671 -0.004698
72483.545067 -0.484497 0.179443 -10.057800 -0.003020 -0.002013 -0.002181
72483.555320 -0.442627 0.197388 -10.081726 -0.003691 -0.002349 0.000336
72483.566435 -0.451599 0.113647 -10.024902 -0.005033 0.001678 -0.000671
72483.578902 -0.487488 0.110657 -10.039856 -0.003020 0.000336 -0.001678
72483.585332 -0.517395 0.158508 -10.081726 -0.002684 0.001342 -0.003020
72483.595316 -0.508423 0.137573 -10.048828 -0.004698 0.000336 -0.003691
72483.605051 -0.490479 0.137573 -10.015930 -0.004027 0.005033 -0.001007
72483.615329 -0.475525 0.173462 -10.042847 -0.003691 0.001007 -0.002349
72483.625061 -0.466553 0.143555 -10.078735 -0.003691 -0.003356 -0.003356
72483.635314 -0.451599 0.134583 -10.072754 -0.002684 0.001342 -0.000671
72483.645047 -0.472534 0.140564 -10.012939 -0.004027 0.001007 -0.001678
72483.655327 -0.505432 0.128601 -10.012939 -0.004698 -0.003356 -0.002349
72483.666413 -0.487488 0.179443 -10.084717 -0.003356 -0.001678 -0.002684
72483.678885 -0.466553 0.212341 -10.051819 -0.002349 0.004698 -0.002349
72483.685313 -0.466553 0.152527 -9.977051 -0.002013 0.003356 -0.001678
72483.695325 -0.484497 0.113647 -10.033875 -0.004362 -0.001342 -0.004362
72483.705058 -0.514404 0.137573 -10.096680 -0.003356 -0.001007 -0.000671
72483.715310 -0.514404 0.152527 -10.048828 -0.003356 0.001678 0.000336
72483.725043 -0.454590 0.179443 -10.006958 -0.002349 0.000671 -0.000336
72483.735295 -0.427673 0.170471 -10.027893 -0.003020 0.000419 -0.005369
72483.745055 -0.475525 0.128601 -10.060791 -0.005369 0.000168 -0.002349
72483.755307 -0.505432 0.146545 -10.075745 -0.002349 -0.000084 -0.002349
72483.766393 -0.520386 0.152527 -10.036865 -0.003020 -0.000336 -0.003356
72483.778890 -0.514404 0.125610 -9.997986 -0.004027 -0.001342 -0.004362
72483.785321 -0.487488 0.161499 -10.042847 -0.002349 0.000671 -0.001007
72483.795304 -0.478516 0.194397 -10.054810 -0.004698 -0.000671 -0.000671
72483.805037 -0.469543 0.149536 -10.024902 -0.003020 0.001007 -0.000336
72483.815291 -0.481506 0.143555 -10.036865 -0.002684 0.001678 -0.002349
72483.825023 -0.514404 0.140564 -10.057800 -0.003691 0.001007 -0.000671
72483.835303 -0.538330 0.143555 -10.039856 -0.004698 0.002349 0.000336
72483.845035 -0.484497 0.221313 -10.042847 -0.002349 0.001007 -0.004698
72483.855289 -0.466553 0.230286 -10.039856 -0.000336 -0.001007 -0.002684
72483.866373 -0.484497 0.146545 -10.045837 -0.003356 -0.000336 -0.001007
72483.878871 -0.490479 0.131592 -10.063782 -0.004362 0.002684 -0.003020
72483.885301 -0.517395 0.158508 -10.051819 -0.003356 0.000671 -0.003020
72483.895285 -0.505432 0.164490 -10.045837 -0.002684 -0.001342 -0.002013
72483.905020 -0.463562 0.194397 -10.048828 -0.000671 -0.001007 -0.002684
72483.915270 -0.457581 0.176453 -10.027893 -0.002684 -0.000671 -0.003020
72483.925029 -0.493469 0.128601 -10.036865 -0.004027 0.001342 -0.001678
72483.935282 -0.517395 0.164490 -10.057800 -0.002684 0.001342 -0.000336
72483.945015 -0.511414 0.173462 -10.003967 -0.004362 0.000671 -0.003020
72483.955295 -0.505432 0.128601 -9.983032 -0.003020 0.000336 -0.005704
72483.966355 -0.493469 0.161499 -10.057800 -0.003356 0.000503 -0.003691
72483.978852 -0.478516 0.170471 -10.069763 -0.006040 0.000671 -0.001678
72483.985280 -0.451599 0.137573 -10.021912 -0.002349 0.005033 -0.001007
72483.995266 -0.454590 0.128601 -10.039856 -0.001007 0.000671 -0.000336
72484.000000 -0.477801 0.118446 -10.055814 -0.002797 0.001322 -0.000580
72484.005025 -0.502441 0.107666 -10.072754 -0.004698 0.002013 -0.000839
72484.015278 -0.523376 0.143555 -10.051819 -0.003020 0.001007 -0.001342
72484.025010 -0.490479 0.203369 -10.018921 -0.001678 0.000671 0.000336
72484.035262 -0.457581 0.170471 -10.024902 -0.003020 0.001007 -0.002013
72484.044996 -0.451599 0.107666 -10.069763 -0.004362 -0.002349 -0.003356
72484.055274 -0.466553 0.122620 -10.096680 -0.004027 -0.001678 -0.001007
72484.066360 -0.502441 0.125610 -10.057800 -0.000671 0.001342 -0.001678
72484.078831 -0.493469 0.137573 -10.033875 -0.002349 0.002013 -0.001342
72484.085262 -0.457581 0.179443 -10.054810 -0.004027 0.001342 -0.002684
72484.095272 -0.451599 0.110657 -10.060791 -0.006040 0.001007 -0.002181
72484.105004 -0.466553 0.086731 -10.075745 -0.004362 -0.001007 -0.001678
72484.115258 -0.502441 0.161499 -10.060791 -0.001342 0.000000 -0.003020
72484.124990 -0.502441 0.158508 -10.000977 -0.002684 0.001007 -0.002349
72484.135243 -0.484497 0.131592 -10.006958 -0.002349 -0.001007 -0.000671
72484.145002 -0.475525 0.185425 -10.087708 -0.006376 -0.000336 -0.003020
72484.155256 -0.487488 0.170471 -10.081726 -0.006711 0.003356 -0.003691
72484.166340 -0.487488 0.128601 -10.027893 -0.001342 0.002349 -0.001342
72484.178838 -0.481506 0.161499 -10.024902 -0.003356 -0.002013 -0.003020
72484.185267 -0.514404 0.155518 -10.048828 -0.002684 0.000168 -0.000671
72484.195252 -0.508423 0.188416 -10.060791 -0.002349 0.002349 -0.003020
72484.204986 -0.469543 0.245239 -10.012939 -0.003691 0.000336 -0.002684
72484.215238 -0.469543 0.197388 -9.989014 -0.006711 -0.000503 -0.002013
72484.224996 -0.481506 0.125610 -10.069763 -0.005369 -0.001342 -0.003020
72484.235249 -0.517395 0.149536 -10.105652 -0.001342 0.000671 -0.003356
72484.244982 -0.526367 0.164490 -10.036865 -0.002684 0.001678 -0.002684
72484.255235 -0.481506 0.170471 -10.012939 -0.004362 -0.000671 -0.002013
72484.266322 -0.451599 0.191406 -10.042847 -0.003020 0.002013 -0.003356
72484.278819 -0.454590 0.158508 -10.045837 -0.005704 0.000336 -0.001678
72484.285247 -0.466553 0.152527 -10.066772 -0.002349 0.001007 0.002684
72484.295233 -0.493469 0.167480 -10.084717 -0.001342 0.001007 -0.002684
72484.304966 -0.487488 0.131592 -10.054810 -0.001678 0.001342 -0.003691
72484.315217 -0.466553 0.122620 -10.036865 -0.003356 -0.001342 -0.001007
72484.324977 -0.451599 0.164490 -10.063782 -0.005033 0.000839 -0.001342
72484.335229 -0.460571 0.164490 -10.054810 -0.004027 0.003020 -0.001007
72484.344962 -0.463562 0.140564 -10.045837 -0.003356 0.000336 -0.003020
72484.355215 -0.484497 0.125610 -10.039856 -0.005369 -0.000503 -0.002684
72484.366302 -0.517395 0.119629 -10.027893 -0.002349 -0.001342 -0.001678
72484.378799 -0.487488 0.197388 -10.069763 -0.001678 0.000336 -0.001342
72484.385229 -0.442627 0.227295 -10.066772 -0.003020 0.001342 -0.000671
72484.395214 -0.463562 0.143555 -10.012939 -0.004362 0.001007 -0.002013
72484.404946 -0.502441 0.104675 -10.036865 -0.002349 0.000671 -0.003020
72484.415226 -0.514404 0.128601 -10.084717 -0.003356 -0.000671 -0.003020
72484.424958 -0.490479 0.137573 -10.069763 -0.008389 -0.002013 -0.001007
72484.435211 -0.451599 0.173462 -10.030884 -0.002684 -0.000671 -0.002684
72484.444944 -0.448608 0.182434 -10.009949 -0.003020 0.001174 -0.001342
72484.455224 -0.484497 0.146545 -10.039856 -0.004362 0.003020 -0.000336
72484.466309 -0.529358 0.158508 -10.078735 -0.001342 0.002349 0.000336
72484.478806 -0.544312 0.149536 -10.018921 -0.002013 0.000336 -0.002349
72484.485236 -0.517395 0.116638 -9.980042 -0.003691 -0.000839 -0.005369
72484.495220 -0.490479 0.161499 -10.057800 -0.005369 -0.002013 -0.001342
72484.504954 -0.469543 0.194397 -10.087708 -0.004362 -0.000336 -0.002013
72484.515205 -0.457581 0.158508 -10.030884 -0.003356 0.004027 -0.001007
72484.524938 -0.481506 0.125610 -10.024902 -0.002684 0.003020 -0.001342
72484.535218 -0.508423 0.119629 -10.060791 -0.005033 0.001342 -0.003356
72484.544950 -0.505432 0.152527 -10.060791 -0.003691 -0.000336 -0.003020
72484.555204 -0.481506 0.203369 -10.033875 -0.003356 0.002013 -0.002013
72484.566290 -0.469543 0.161499 -10.018921 -0.003356 0.002013 -0.000671
72484.578787 -0.484497 0.113647 -10.063782 -0.002013 -0.001678 -0.002013
72484.585215 -0.508423 0.134583 -10.084717 -0.003691 0.000336 -0.003020
72484.595201 -0.505432 0.152527 -10.030884 -0.004698 0.002349 -0.003020
72484.604933 -0.463562 0.176453 -10.021912 -0.005369 -0.001007 -0.000336
72484.615186 -0.442627 0.182434 -10.060791 -0.000671 -0.000671 -0.000671
72484.624947 -0.469543 0.149536 -10.060791 -0.001007 -0.000336 -0.001678
72484.635198 -0.490479 0.167480 -10.051819 -0.005369 -0.001342 -0.001678
72484.644932 -0.502441 0.179443 -10.045837 -0.003691 0.002013 -0.003020
72484.655209 -0.505432 0.134583 -10.030884 -0.004362 0.005369 -0.005369
72484.666271 -0.478516 0.155518 -10.054810 -0.004698 -0.000336 -0.001342
72484.678768 -0.463562 0.215332 -10.075745 -0.004362 -0.003020 -0.000671
72484.685197 -0.463562 0.179443 -10.048828 -0.004362 0.001007 -0.003020
72484.695182 -0.472534 0.149536 -10.036865 -0.003020 -0.000336 -0.002684
72484.704915 -0.496460 0.170471 -10.033875 -0.002684 -0.001678 -0.002349
72484.715168 -0.490479 0.194397 -10.045837 -0.002349 0.002349 0.001342
72484.724926 -0.454590 0.215332 -10.066772 -0.002013 0.000503 -0.001342
72484.735179 -0.457581 0.179443 -10.045837 -0.002013 -0.001342 -0.004698
72484.744912 -0.472534 0.128601 -10.036865 -0.001342 0.000671 -0.001678
72484.755165 -0.502441 0.134583 -10.054810 -0.003020 0.002684 -0.001007
72484.766276 -0.511414 0.152527 -10.042847 -0.004698 0.002349 -0.002349
72484.778773 -0.469543 0.164490 -10.024902 -0.004698 -0.000671 -0.001678
72484.785203 -0.460571 0.155518 -10.024902 -0.001678 0.000839 -0.001342
72484.795162 -0.490479 0.119629 -10.024902 -0.002349 0.002349 -0.001007
72484.804922 -0.511414 0.128601 -10.054810 -0.003691 0.001007 -0.003691
72484.815174 -0.523376 0.161499 -10.063782 -0.003356 0.001174 -0.002684
72484.824906 -0.526367 0.119629 -10.018921 -0.004698 0.001342 -0.001678
72484.835161 -0.502441 0.107666 -10.021912 -0.005033 0.000336 -0.000671
72484.844892 -0.475525 0.167480 -10.057800 0.001007 0.001007 -0.004362
72484.855172 -0.472534 0.158508 -10.039856 -0.004362 -0.000671 -0.004362
72484.866258 -0.472534 0.119629 -10.036865 -0.004698 0.001678 -0.001678
72484.878765 -0.502441 0.122620 -10.063782 -0.002013 0.002349 0.001007
72484.885184 -0.523376 0.131592 -10.060791 -0.005033 0.001342 -0.000671
72484.895169 -0.481506 0.176453 -10.057800 -0.000336 0.000336 -0.004027
72484.904902 -0.457581 0.188416 -10.048828 -0.003356 -0.001007 -0.002013
72484.915153 -0.484497 0.131592 -10.036865 -0.007047 -0.001342 -0.000336
72484.924888 -0.511414 0.119629 -10.042847 -0.005704 -0.001007 -0.003356
72484.935166 -0.523376 0.146545 -10.045837 -0.001678 0.002013 -0.002349
72484.944900 -0.517395 0.155518 -10.027893 -0.004027 0.001007 -0.000671
72484.955151 -0.484497 0.173462 -10.027893 -0.002013 -0.000336 -0.002349
72484.966238 -0.469543 0.155518 -10.024902 -0.001678 0.001342 -0.000671
72484.978740 -0.475525 0.119629 -10.036865 -0.004698 0.002684 -0.002684
72484.985165 -0.493469 0.164490 -10.075745 -0.002349 -0.001007 -0.001342
72484.995149 -0.502441 0.179443 -10.042847 -0.003020 0.002013 -0.001007
72485.000000 -0.490517 0.152613 -10.018997 -0.003020 0.001679 -0.002177
72485.004882 -0.478516 0.125610 -9.994995 -0.003020 0.001342 -0.003356
72485.015136 -0.454590 0.161499 -10.054810 -0.005369 0.000671 -0.003020
72485.024893 -0.457581 0.185425 -10.093689 -0.006711 -0.000336 -0.002684
72485.035147 -0.472534 0.146545 -10.042847 -0.005369 -0.000336 -0.003020
72485.044880 -0.496460 0.146545 -9.997986 -0.002684 -0.001678 0.001007
72485.055133 -0.523376 0.146545 -10.021912 -0.002013 -0.000671 -0.001342
72485.066217 -0.511414 0.176453 -10.069763 -0.002013 -0.000671 -0.002013
72485.078721 -0.487488 0.212341 -10.048828 -0.002013 0.000671 -0.000671
72485.085145 -0.469543 0.167480 -10.006958 -0.003691 0.003020 -0.003691
72485.095128 -0.472534 0.116638 -10.048828 -0.004362 0.001174 -0.004698
72485.104861 -0.493469 0.146545 -10.114624 -0.002349 -0.000671 -0.003691
72485.115115 -0.520386 0.155518 -10.051819 -0.006040 0.002013 -0.002684
72485.124873 -0.484497 0.164490 -9.992004 -0.004362 0.002349 -0.003020
72485.135126 -0.436646 0.182434 -10.042847 -0.001678 -0.000671 -0.001342
72485.144859 -0.466553 0.140564 -10.081726 -0.003020 -0.000671 -0.000671
72485.155138 -0.508423 0.149536 -10.069763 0.001007 0.002349 -0.002013
72485.166197 -0.520386 0.170471 -10.021912 -0.004362 0.000671 -0.003356
72485.178702 -0.520386 0.128601 -10.000977 -0.007718 -0.000671 -0.000671
72485.185124 -0.490479 0.140564 -10.063782 -0.003356 -0.000671 -0.001678
72485.195110 -0.466553 0.185425 -10.072754 -0.002349 0.001678 -0.000671
72485.204869 -0.445618 0.155518 -10.030884 -0.003356 0.002349 -0.001678
72485.215122 -0.457581 0.134583 -10.057800 -0.001342 0.001342 -0.002684
72485.224855 -0.508423 0.131592 -10.069763 -0.002013 0.000559 -0.003356
72485.235107 -0.508423 0.137573 -10.039856 -0.003020 -0.000224 -0.001678
72485.244866 -0.466553 0.176453 -10.042847 -0.002684 -0.001007 -0.001678
72485.255119 -0.448608 0.167480 -10.063782 -0.002349 0.000503 -0.002349
72485.266205 -0.469543 0.119629 -10.048828 -0.007047 0.002013 -0.001678
72485.278709 -0.487488 0.122620 -10.036865 -0.004027 0.000671 -0.001007
72485.285132 -0.499451 0.131592 -10.045837 -0.003020 0.000671 -0.000671
72485.295116 -0.481506 0.137573 -10.063782 -0.004362 -0.001007 -0.001342
72485.304849 -0.451599 0.164490 -10.030884 -0.005033 0.000336 -0.003356
72485.315102 -0.454590 0.146545 -9.992004 -0.003356 0.001678 -0.002684
72485.324835 -0.493469 0.137573 -10.042847 -0.000671 -0.001007 -0.001342
72485.335088 -0.511414 0.167480 -10.108643 -0.002013 -0.000336 0.000336
72485.344845 -0.520386 0.128601 -10.018921 -0.005704 0.004027 -0.001342
72485.355100 -0.490479 0.107666 -9.977051 -0.002684 0.001678 -0.004698
72485.366185 -0.454590 0.164490 -10.075745 -0.001678 -0.001678 -0.003020
72485.378681 -0.442627 0.179443 -10.102661 -0.003020 0.001007 -0.001678
72485.385111 -0.460571 0.149536 -10.033875 -0.004027 0.001678 -0.000671
72485.395094 -0.499451 0.125610 -10.003967 -0.006376 -0.001342 -0.001678
72485.404827 -0.508423 0.122620 -10.060791 -0.004362 0.001342 -0.003691
72485.415083 -0.475525 0.182434 -10.096680 -0.003020 0.001174 -0.003356
72485.424841 -0.454590 0.221313 -10.039856 -0.003356 0.001007 -0.001007
72485.435094 -0.466553 0.158508 -10.000977 -0.004027 -0.000336 -0.001342
72485.444827 -0.499451 0.128601 -10.063782 -0.002013 -0.002013 -0.002684
72485.455081 -0.517395 0.149536 -10.096680 -0.001678 0.002013 -0.003020
72485.466166 -0.502441 0.146545 -10.033875 -0.007047 0.002684 -0.002684
72485.478663 -0.463562 0.182434 -10.003967 -0.002013 -0.002013 -0.003020
72485.485093 -0.457581 0.200378 -10.045837 -0.004362 0.000671 -0.003356
72485.495078 -0.469543 0.143555 -10.072754 -0.002684 0.001007 0.000336
72485.504811 -0.481506 0.152527 -10.057800 -0.004027 0.000336 -0.000336
72485.515089 -0.505432 0.182434 -10.006958 -0.002684 0.000671 -0.004027
72485.524822 -0.511414 0.134583 -10.021912 -0.003020 0.001678 -0.003020
72485.535075 -0.490479 0.146545 -10.075745 -0.004698 0.001678 -0.002013
72485.544807 -0.469543 0.185425 -10.042847 -0.003020 0.000671 -0.002684
72485.555061 -0.463562 0.164490 -10.000977 -0.002013 -0.003020 -0.001342
72485.566173 -0.478516 0.137573 -10.054810 -0.001007 0.000336 -0.002349
72485.578644 -0.508423 0.137573 -10.075745 -0.004698 0.004027 -0.003691
72485.585073 -0.499451 0.152527 -10.036865 -0.006376 -0.001342 -0.002349
72485.595058 -0.466553 0.197388 -10.027893 -0.004362 -0.004362 -0.002349
72485.604816 -0.469543 0.185425 -10.036865 -0.000336 -0.002013 0.000336
72485.615071 -0.478516 0.137573 -10.054810 -0.005704 0.000336 -0.001342
72485.624803 -0.502441 0.134583 -10.057800 -0.004698 0.001007 -0.003356
72485.635056 -0.523376 0.134583 -10.051819 -0.003356 0.001678 -0.004027
72485.644789 -0.487488 0.149536 -10.054810 -0.003691 0.000671 -0.002013
72485.655069 -0.451599 0.188416 -10.042847 -0.001007 0.002349 -0.001342
72485.666153 -0.451599 0.152527 -10.027893 -0.002349 0.000336 -0.003020
72485.678651 -0.472534 0.131592 -10.069763 -0.003356 -0.002349 -0.001678
72485.685080 -0.496460 0.164490 -10.090698 -0.003691 -0.000336 -0.001342
72485.695065 -0.499451 0.125610 -10.012939 -0.003356 0.001678 -0.002013
72485.704798 -0.493469 0.110657 -9.992004 -0.005033 0.001342 -0.002013
72485.715050 -0.487488 0.182434 -10.075745 -0.002684 -0.000671 -0.002684
72485.724783 -0.481506 0.167480 -10.099670 -0.002349 0.001174 -0.004027
72485.735039 -0.475525 0.113647 -10.030884 -0.003020 0.003020 -0.002349
72485.744796 -0.496460 0.131592 -9.992004 -0.002684 0.001007 -0.002349
72485.755055 -0.514404 0.152527 -10.027893 -0.003356 -0.005033 -0.000336
72485.766133 -0.499451 0.170471 -10.075745 -0.004698 -0.000671 0.001342
72485.778631 -0.466553 0.182434 -10.054810 -0.001342 0.003691 -0.003020
72485.785060 -0.475525 0.131592 -9.994995 -0.004362 -0.000336 -0.002013
72485.795046 -0.505432 0.107666 -10.042847 -0.004362 -0.001678 -0.001007
72485.804778 -0.511414 0.134583 -10.105652 -0.000336 -0.001678 -0.003356
72485.815031 -0.487488 0.158508 -10.042847 -0.004027 0.003020 -0.004027
72485.824790 -0.445618 0.176453 -9.992004 -0.006711 0.002684 0.000336
72485.835043 -0.457581 0.149536 -10.039856 -0.001007 -0.000671 0.000671
72485.844775 -0.484497 0.131592 -10.096680 -0.002013 0.001678 -0.001342
72485.855028 -0.511414 0.179443 -10.063782 -0.004698 0.001007 -0.003020
72485.866115 -0.526367 0.161499 -9.986023 -0.004362 0.000336 -0.001342
72485.878613 -0.505432 0.110657 -10.006958 -0.005369 -0.000336 -0.002013
72485.885041 -0.481506 0.161499 -10.090698 -0.004698 -0.001007 -0.001007
72485.895027 -0.457581 0.176453 -10.060791 -0.004027 0.000336 -0.001678
72485.904760 -0.460571 0.131592 -9.997986 -0.004362 0.001174 -0.002349
72485.915038 -0.493469 0.134583 -10.045837 -0.003356 0.002013 -0.001678
72485.924771 -0.523376 0.155518 -10.093689 -0.000671 0.003020 -0.000671
72485.935024 -0.487488 0.173462 -10.054810 -0.001342 0.002684 -0.000336
72485.944757 -0.451599 0.206360 -10.015930 -0.003691 0.002684 -0.003356
72485.955036 -0.466553 0.164490 -10.033875 -0.005033 -0.001342 -0.004362
72485.966121 -0.481506 0.131592 -10.075745 -0.003356 -0.001342 -0.003020
72485.978618 -0.505432 0.149536 -10.048828 -0.003020 0.001342 -0.002013
72485.985048 -0.502441 0.161499 -10.015930 -0.004027 0.000336 -0.000671
72485.995032 -0.460571 0.179443 -10.060791 -0.003020 0.001510 0.000671
72486.000000 -0.449886 0.179443 -10.069950 -0.003020 0.002109 -0.000356
72486.004765 -0.439636 0.179443 -10.078735 -0.003020 0.002684 -0.001342
72486.015018 -0.460571 0.143555 -10.021912 -0.003020 0.003020 -0.002349
72486.024751 -0.487488 0.158508 -10.036865 -0.001678 -0.001342 -0.000671
72486.035005 -0.505432 0.170471 -10.081726 -0.002349 -0.000503 -0.001678
72486.044763 -0.502441 0.116638 -10.036865 -0.003691 0.000336 -0.000671
72486.055016 -0.487488 0.119629 -10.006958 -0.005704 -0.000336 0.000336
72486.066101 -0.481506 0.173462 -10.027893 -0.004362 0.000671 -0.000671
72486.078599 -0.481506 0.155518 -10.051819 -0.003020 0.001678 -0.002013
72486.085028 -0.490479 0.113647 -10.057800 -0.002013 0.001342 -0.004027
72486.094987 -0.526367 0.113647 -10.021912 -0.003691 0.001007 -0.001678
72486.104747 -0.535339 0.146545 -10.018921 -0.002684 0.000671 -0.001342
72486.114999 -0.496460 0.194397 -10.057800 -0.001678 -0.001007 -0.003356
72486.124733 -0.472534 0.182434 -10.039856 -0.003020 0.000671 -0.004027
72486.134984 -0.487488 0.116638 -10.006958 -0.004027 -0.000503 -0.000336
72486.144743 -0.493469 0.122620 -10.042847 -0.001678 -0.001678 0.000336
72486.154996 -0.505432 0.146545 -10.054810 -0.004698 0.000671 -0.001007
72486.166083 -0.487488 0.149536 -10.030884 -0.003691 0.001678 -0.000168
72486.178580 -0.460571 0.161499 -10.024902 0.000336 0.001342 0.000671
72486.185008 -0.463562 0.131592 -10.048828 -0.004027 -0.000336 -0.002684
72486.194994 -0.481506 0.110657 -10.084717 -0.005369 0.001342 -0.003020
72486.204727 -0.490479 0.152527 -10.075745 -0.004027 -0.000503 -0.002013
72486.214980 -0.478516 0.146545 -10.012939 -0.003020 -0.002349 -0.001342
72486.224739 -0.454590 0.134583 -10.033875 -0.002349 0.000671 -0.000671
72486.234992 -0.451599 0.176453 -10.087708 -0.004362 0.002349 -0.003691
72486.244725 -0.454590 0.164490 -10.066772 -0.001342 0.002684 -0.003691
72486.254977 -0.448608 0.140564 -10.036865 -0.002013 -0.001678 -0.000336
72486.266063 -0.481506 0.146545 -10.048828 -0.003356 -0.003020 -0.002013
72486.278560 -0.496460 0.143555 -10.057800 -0.004698 -0.000336 -0.003691
72486.284990 -0.469543 0.188416 -10.048828 -0.002684 0.003691 -0.005369
72486.294974 -0.442627 0.194397 -10.033875 -0.004698 0.005369 -0.002013
72486.304708 -0.442627 0.125610 -10.036865 -0.005369 -0.000671 0.000336
72486.314986 -0.484497 0.128601 -10.060791 -0.003020 -0.000336 -0.001007
72486.324718 -0.526367 0.176453 -10.069763 -0.001007 -0.001007 -0.000336
72486.334972 -0.505432 0.167480 -10.027893 -0.003020 -0.001678 -0.001342
72486.344701 -0.454590 0.176453 -10.003967 -0.007047 0.001678 -0.003691
72486.354984 -0.451599 0.173462 -10.030884 -0.003691 0.000336 -0.003356
72486.366069 -0.493469 0.137573 -10.069763 -0.005033 -0.001007 -0.000671
72486.378566 -0.517395 0.170471 -10.057800 -0.002349 0.001678 0.003356
72486.384996 -0.538330 0.185425 -9.986023 -0.002013 -0.001007 -0.001678
72486.394954 -0.526367 0.140564 -9.994995 -0.002684 -0.002684 -0.001342
72486.404689 -0.508423 0.152527 -10.084717 -0.002013 0.002349 -0.002684
72486.414967 -0.502441 0.170471 -10.066772 -0.005704 0.000671 -0.004362
72486.424701 -0.478516 0.155518 -10.000977 -0.004027 -0.000671 -0.002349
72486.434952 -0.496460 0.146545 -10.033875 -0.002349 -0.002013 -0.001007
72486.444685 -0.541321 0.125610 -10.075745 -0.000671 -0.001342 -0.001454
72486.454964 -0.520386 0.152527 -10.051819 -0.004027 0.004698 -0.001901
72486.466051 -0.469543 0.209351 -10.018921 -0.003691 0.001342 -0.002349
72486.478548 -0.460571 0.167480 -10.042847 -0.003356 0.001007 -0.003691
72486.484977 -0.478516 0.110657 -10.081726 -0.001678 0.000671 -0.003691
72486.494962 -0.502441 0.125610 -10.063782 -0.004027 0.003020 -0.002013
72486.504696 -0.517395 0.122620 -10.036865 -0.004698 0.002684 -0.001678
72486.514948 -0.472534 0.149536 -10.060791 -0.004027 0.000336 -0.001342
72486.524681 -0.430664 0.203369 -10.072754 -0.003356 -0.000336 -0.002013
72486.534960 -0.421692 0.137573 -10.039856 -0.006711 -0.001007 -0.001007
72486.544692 -0.439636 0.107666 -10.072754 -0.003020 -0.001678 -0.003691
72486.554944 -0.484497 0.161499 -10.096680 -0.003356 -0.002013 -0.006376
72486.566031 -0.514404 0.131592 -10.042847 -0.002852 0.002684 -0.001342
72486.578528 -0.493469 0.110657 -10.006958 -0.002349 -0.001007 -0.001678
72486.584958 -0.457581 0.167480 -10.042847 -0.004027 -0.003356 0.000336
72486.594942 -0.463562 0.167480 -10.051819 -0.004698 0.001342 -0.002013
72486.604675 -0.457581 0.146545 -10.033875 -0.005369 0.000671 -0.004362
72486.614954 -0.490479 0.146545 -10.021912 -0.003691 -0.001678 -0.003020
72486.624667 -0.547302 0.104675 -10.027893 -0.001678 0.001342 -0.002349
72486.634940 -0.526367 0.140564 -10.054810 -0.001007 0.003691 -0.002684
72486.644673 -0.457581 0.227295 -10.051819 -0.004698 0.002349 -0.000336
72486.654926 -0.427673 0.176453 -10.021912 -0.003356 0.000671 -0.001678
72486.666037 -0.451599 0.116638 -10.042847 -0.004698 -0.001007 -0.001007
72486.678512 -0.496460 0.137573 -10.087708 -0.002684 -0.001342 -0.000671
72486.684939 -0.529358 0.137573 -10.066772 -0.003691 -0.001007 -0.002013
72486.694923 -0.487488 0.182434 -10.021912 -0.005704 -0.000671 -0.002013
72486.704668 -0.457581 0.218323 -10.000977 -0.003691 -0.000336 -0.000336
72486.714934 -0.478516 0.149536 -10.033875 -0.003020 0.000671 -0.000336
72486.724668 -0.496460 0.116638 -10.081726 -0.002013 0.001678 -0.003691
72486.734920 -0.511414 0.161499 -10.030884 -0.001007 0.000336 -0.005369
72486.744649 -0.538330 0.140564 -9.974060 -0.006040 0.001007 -0.004698
72486.754932 -0.529358 0.128601 -10.042847 -0.002349 0.000336 -0.003244
72486.766019 -0.496460 0.182434 -10.090698 -0.006711 -0.000336 -0.001790
72486.778519 -0.478516 0.167480 -10.024902 -0.002684 -0.001007 -0.000336
72486.784944 -0.481506 0.128601 -10.009949 -0.004698 -0.001678 -0.003020
72486.794930 -0.502441 0.125610 -10.078735 -0.002684 -0.000671 -0.001342
72486.804667 -0.544312 0.119629 -10.072754 -0.003691 0.003020 -0.002013
72486.814916 -0.511414 0.167480 -10.021912 -0.002349 0.002349 -0.002349
72486.824644 -0.454590 0.224304 -10.015930 -0.001678 0.001007 -0.002013
72486.834901 -0.454590 0.176453 -10.054810 -0.005369 -0.000336 -0.001007
72486.844668 -0.472534 0.110657 -10.075745 -0.002349 0.000168 -0.000336
72486.854912 -0.487488 0.110657 -10.051819 -0.002013 0.000671 -0.003020
72486.865999 -0.505432 0.128601 -10.048828 -0.005033 0.001342 -0.003020
72486.878500 -0.475525 0.179443 -10.072754 -0.004027 0.001678 -0.001678
72486.884926 -0.442627 0.209351 -10.030884 -0.002349 0.002684 -0.001678
72486.894910 -0.454590 0.131592 -9.997986 -0.003356 0.000671 -0.002013
72486.904643 -0.475525 0.119629 -10.060791 -0.002349 -0.003691 -0.001846
72486.914896 -0.493469 0.185425 -10.075745 -0.003691 -0.002349 -0.001678
72486.924636 -0.526367 0.149536 -9.977051 -0.003691 0.002013 -0.001678
72486.934908 -0.505432 0.128601 -9.983032 -0.002013 0.002013 -0.002013
72486.944644 -0.478516 0.182434 -10.081726 -0.002349 -0.002349 -0.000671
72486.954894 -0.478516 0.155518 -10.084717 -0.001678 -0.001007 -0.001342
72486.965979 -0.463562 0.128601 -10.006958 -0.006376 0.001342 -0.002684
72486.978476 -0.466553 0.143555 -9.997986 -0.003356 0.001342 -0.000671
72486.984906 -0.502441 0.122620 -10.066772 -0.001678 0.001342 -0.002349
72486.994891 -0.493469 0.155518 -10.090698 -0.003356 0.002013 -0.001342
72487.000000 -0.473076 0.190029 -10.049912 -0.003180 0.001603 -0.001342
72487.004632 -0.454590 0.221313 -10.012939 -0.003020 0.001230 -0.001342
72487.014877 -0.454590 0.173462 -9.986023 -0.003356 0.000447 -0.002684
72487.024640 -0.475525 0.110657 -10.084717 -0.001678 -0.000336 -0.003356
72487.034885 -0.511414 0.125610 -10.102661 -0.002684 0.000336 -0.003691
72487.044626 -0.517395 0.134583 -10.033875 -0.005033 0.002013 0.000336
72487.054898 -0.475525 0.164490 -10.033875 -0.003020 0.001007 0.003356
72487.065984 -0.451599 0.197388 -10.066772 -0.002684 0.001342 -0.001342
72487.078454 -0.457581 0.134583 -10.057800 -0.003691 0.002013 -0.005369
72487.084883 -0.481506 0.101685 -10.063782 -0.002349 -0.000671 -0.002013
72487.094869 -0.505432 0.149536 -10.063782 -0.004362 -0.002349 -0.001342
72487.104602 -0.517395 0.146545 -10.018921 -0.004698 0.001342 -0.000671
72487.114881 -0.499451 0.143555 -10.018921 -0.002684 0.001342 0.000336
72487.124622 -0.478516 0.185425 -10.054810 -0.002013 0.001510 -0.003356
72487.134867 -0.469543 0.173462 -10.060791 -0.005369 0.001678 -0.004362
72487.144600 -0.466553 0.143555 -10.051819 -0.003356 0.001678 -0.002684
72487.154877 -0.484497 0.155518 -10.030884 -0.003356 -0.002684 -0.001342
72487.165964 -0.517395 0.143555 -10.024902 -0.003691 -0.003020 -0.002684
72487.178461 -0.505432 0.179443 -10.060791 -0.004362 0.002013 -0.001678
72487.184891 -0.466553 0.227295 -10.036865 -0.003356 0.003691 -0.000671
72487.194875 -0.460571 0.179443 -9.992004 -0.002684 0.001007 0.000336
72487.204607 -0.484497 0.125610 -10.054810 -0.004698 0.000336 -0.001174
72487.214861 -0.502441 0.134583 -10.108643 -0.004362 0.001007 -0.002684
72487.224594 -0.508423 0.152527 -10.042847 -0.001678 0.001678 -0.004698
72487.234847 -0.469543 0.176453 -10.009949 -0.001342 0.000671 -0.001342
72487.244579 -0.439636 0.188416 -10.042847 -0.003691 0.000503 -0.001007
72487.254859 -0.454590 0.155518 -10.060791 -0.005033 0.000336 -0.001510
72487.265944 -0.487488 0.143555 -10.063782 -0.004362 0.001007 -0.002013
72487.278441 -0.514404 0.146545 -10.039856 -0.002349 -0.000671 -0.002684
72487.284871 -0.520386 0.122620 -9.997986 -0.002013 -0.000168 -0.002013
72487.294830 -0.490479 0.155518 -10.036865 -0.001678 0.000336 -0.003356
72487.304590 -0.463562 0.182434 -10.075745 -0.004698 -0.000671 -0.003356
72487.314841 -0.457581 0.137573 -10.051819 -0.005369 0.000671 -0.001342
72487.324573 -0.469543 0.140564 -10.048828 -0.004027 0.002013 -0.001342
72487.334853 -0.502441 0.143555 -10.051819 -0.003691 0.001007 -0.002684
72487.344583 -0.499451 0.125610 -10.054810 -0.002684 -0.001007 -0.002684
72487.354839 -0.463562 0.215332 -10.060791 -0.003020 0.000671 -0.002013
72487.365926 -0.448608 0.242249 -10.048828 -0.003691 0.002349 -0.005033
72487.378423 -0.478516 0.128601 -10.036865 -0.005033 0.001007 -0.005033
72487.384851 -0.499451 0.101685 -10.051819 -0.002013 -0.000336 -0.001007
72487.394837 -0.517395 0.152527 -10.057800 -0.002349 -0.000336 0.002013
72487.404571 -0.508423 0.152527 -10.042847 -0.004027 -0.000336 -0.000671
72487.414823 -0.460571 0.167480 -10.045837 -0.003020 -0.000336 -0.002684
72487.424581 -0.448608 0.155518 -10.030884 -0.002013 0.000336 -0.000336
72487.434835 -0.466553 0.101685 -10.054810 -0.003356 0.000336 -0.000671
72487.444568 -0.487488 0.137573 -10.099670 -0.003020 0.000671 -0.002013
72487.454819 -0.523376 0.161499 -10.027893 -0.004698 0.003020 -0.004027
72487.465932 -0.523376 0.128601 -9.968079 -0.005704 -0.001007 -0.003691
72487.478404 -0.490479 0.155518 -10.048828 -0.000336 -0.000336 -0.001342
72487.484834 -0.469543 0.185425 -10.090698 0.000671 0.002013 0.001007
72487.494817 -0.463562 0.152527 -10.033875 -0.004362 0.001342 -0.000336
72487.504576 -0.481506 0.128601 -10.018921 -0.007382 0.000671 -0.002013
72487.514829 -0.535339 0.125610 -10.033875 -0.007718 0.000000 -0.002684
72487.524562 -0.526367 0.158508 -10.048828 -0.003691 -0.000671 -0.002013
72487.534815 -0.472534 0.209351 -10.042847 0.001007 0.000336 -0.001510
72487.544548 -0.475525 0.167480 -10.009949 -0.001007 0.000671 -0.001007
72487.554828 -0.493469 0.098694 -10.036865 -0.004027 0.001007 -0.000671
72487.565912 -0.511414 0.122620 -10.084717 -0.004362 -0.002684 -0.004027
72487.578383 -0.517395 0.134583 -10.057800 -0.003691 0.001678 -0.005033
72487.584813 -0.484497 0.152527 -10.021912 -0.003691 0.002684 -0.001678
72487.594823 -0.439636 0.197388 -10.036865 -0.002013 0.002013 0.000671
72487.604557 -0.439636 0.158508 -10.048828 -0.003691 0.000336 -0.000336
72487.614810 -0.469543 0.122620 -10.069763 -0.003691 -0.001342 -0.002684
72487.624543 -0.499451 0.158508 -10.084717 -0.002684 0.002013 -0.000336
72487.634821 -0.514404 0.143555 -10.039856 -0.006040 -0.002013 -0.003356
72487.644554 -0.499451 0.125610 -10.024902 -0.002684 -0.001342 -0.005033
72487.654808 -0.475525 0.176453 -10.045837 0.001007 0.004698 -0.004027
72487.665894 -0.454590 0.185425 -10.051819 -0.004698 0.002349 -0.001007
72487.678391 -0.448608 0.149536 -10.045837 -0.008053 0.001510 -0.001678
72487.684820 -0.481506 0.137573 -10.045837 -0.002349 0.000671 0.000336
72487.694789 -0.520386 0.110657 -10.030884 -0.001342 -0.001342 -0.000671
72487.704539 -0.496460 0.158508 -10.048828 -0.003356 -0.000336 -0.003356
72487.714791 -0.466553 0.215332 -10.048828 -0.004027 0.000671 -0.001678
72487.724523 -0.466553 0.161499 -10.018921 -0.001678 0.000503 -0.001678
72487.734803 -0.478516 0.119629 -10.036865 -0.008389 0.000336 0.001342
72487.744543 -0.499451 0.146545 -10.069763 -0.007047 -0.000671 -0.001342
72487.754789 -0.511414 0.146545 -10.051819 -0.002684 0.000336 -0.005369
72487.765874 -0.481506 0.173462 -10.024902 -0.000336 0.002013 -0.003691
72487.778371 -0.451599 0.194397 -10.015930 -0.002013 -0.001007 0.000336
72487.784801 -0.460571 0.146545 -10.048828 -0.003691 -0.005033 0.000336
72487.794790 -0.481506 0.155518 -10.084717 -0.004362 0.002013 -0.002349
72487.804517 -0.502441 0.185425 -10.051819 -0.003691 0.001342 -0.002684
72487.814797 -0.523376 0.131592 -9.986023 -0.004362 0.001342 -0.002684
72487.824529 -0.496460 0.128601 -10.030884 -0.004362 0.002349 -0.001007
72487.834792 -0.463562 0.188416 -10.096680 -0.002684 0.002265 -0.001342
72487.844519 -0.469543 0.161499 -10.048828 -0.003356 0.002181 -0.001342
72487.854767 -0.484497 0.134583 -10.003967 -0.005704 0.002097 -0.003691
72487.865880 -0.502441 0.140564 -10.042847 -0.003020 0.002013 -0.002684
72487.878351 -0.520386 0.131592 -10.069763 -0.000671 0.000336 -0.003020
72487.884782 -0.502441 0.182434 -10.039856 -0.001342 -0.000336 -0.002684
72487.894768 -0.466553 0.203369 -10.009949 -0.002684 -0.001007 -0.001007
72487.904499 -0.460571 0.137573 -10.039856 -0.004362 -0.001678 -0.001678
72487.914773 -0.490479 0.113647 -10.096680 -0.003691 -0.000671 -0.002349
72487.924513 -0.523376 0.134583 -10.069763 -0.005704 0.000336 -0.001342
72487.934769 -0.505432 0.140564 -10.030884 -0.006040 0.002013 -0.002349
72487.944495 -0.451599 0.179443 -10.045837 -0.002684 0.003020 -0.001007
72487.954771 -0.430664 0.173462 -10.057800 -0.001007 -0.001342 -0.001678
72487.965862 -0.448608 0.110657 -10.054810 -0.001678 0.002013 -0.003356
72487.978359 -0.469543 0.146545 -10.075745 -0.002013 0.002349 -0.003020
72487.984787 -0.499451 0.173462 -10.051819 -0.004362 -0.000336 -0.002349
72487.994770 -0.514404 0.119629 -10.000977 -0.005033 0.000168 -0.001678
72488.000000 -0.501556 0.135689 -10.010612 -0.003051 0.000438 -0.002579
72488.004510 -0.490479 0.149536 -10.018921 -0.001342 0.000671 -0.003356
72488.014766 -0.460571 0.182434 -10.063782 -0.003020 0.000336 -0.001678
72488.024490 -0.451599 0.158508 -10.057800 -0.005033 0.000000 -0.000336
72488.034770 -0.457581 0.152527 -10.030884 -0.001342 -0.000336 -0.004362
72488.044503 -0.508423 0.128601 -10.015930 -0.003356 0.001678 -0.002013
72488.054762 -0.523376 0.128601 -10.045837 -0.003356 0.000336 -0.004698
72488.065841 -0.481506 0.194397 -10.057800 -0.001007 0.000336 -0.000671
72488.078338 -0.448608 0.203369 -10.018921 -0.003020 0.001342 0.001342
72488.084768 -0.457581 0.119629 -10.015930 -0.002684 0.000503 -0.001678
72488.094759 -0.496460 0.104675 -10.072754 -0.005704 -0.000336 -0.003020
72488.104484 -0.514404 0.137573 -10.081726 -0.006040 0.000671 -0.002181
72488.114738 -0.481506 0.158508 -10.033875 -0.002349 0.001678 -0.001342
72488.124470 -0.457581 0.185425 -10.024902 -0.002013 0.000671 -0.000336
72488.134758 -0.457581 0.152527 -10.048828 -0.004698 0.001007 -0.002013
72488.144483 -0.472534 0.122620 -10.072754 -0.003691 0.000336 -0.003356
72488.154736 -0.493469 0.167480 -10.063782 -0.001007 -0.001678 -0.003020
72488.165821 -0.520386 0.164490 -10.018921 -0.003020 -0.002684 -0.001678
72488.178318 -0.508423 0.140564 -10.018921 -0.004362 0.001678 -0.000671
72488.184748 -0.466553 0.188416 -10.069763 -0.002684 0.002013 -0.001342
72488.194732 -0.448608 0.173462 -10.060791 -0.006040 -0.001007 -0.002349
72488.204466 -0.451599 0.131592 -10.027893 -0.006040 -0.000839 -0.000671
72488.214755 -0.487488 0.149536 -10.045837 -0.003020 -0.000671 -0.002349
72488.224476 -0.535339 0.125610 -10.063782 -0.001007 -0.001007 -0.001007
72488.234730 -0.514404 0.137573 -10.054810 -0.002349 0.003020 -0.001007
72488.244461 -0.460571 0.227295 -10.030884 -0.003020 0.002684 -0.000671
72488.254742 -0.445618 0.200378 -10.021912 -0.002349 0.001007 -0.002684
72488.265829 -0.466553 0.113647 -10.057800 -0.005033 -0.000336 -0.001007
72488.278300 -0.514404 0.119629 -10.072754 -0.001678 -0.001678 -0.000336
72488.284728 -0.520386 0.137573 -10.036865 -0.002684 0.000336 -0.004698
72488.294714 -0.481506 0.146545 -10.027893 -0.006040 0.000336 -0.004698
72488.304471 -0.439636 0.179443 -10.045837 -0.003020 0.001342 -0.001678
72488.314726 -0.460571 0.149536 -10.024902 -0.003356 0.000336 -0.001678
72488.324459 -0.487488 0.137573 -10.042847 -0.001678 -0.000671 -0.000671
72488.334711 -0.490479 0.173462 -10.063782 -0.003020 -0.000671 -0.000671
72488.344443 -0.484497 0.149536 -10.030884 -0.005033 0.001342 -0.001678
72488.354723 -0.469543 0.137573 -10.033875 -0.003691 0.001007 -0.001342
72488.365809 -0.463562 0.191406 -10.063782 -0.002013 -0.001007 -0.004362
72488.378306 -0.439636 0.170471 -10.054810 -0.007382 -0.001007 -0.001342
72488.384736 -0.436646 0.140564 -10.051819 -0.003356 -0.000336 0.000336
72488.394694 -0.466553 0.143555 -10.063782 0.001342 0.000559 -0.002684
72488.404451 -0.508423 0.143555 -10.045837 -0.004027 0.001454 -0.001678
72488.414707 -0.502441 0.185425 -10.048828 -0.005033 0.002349 -0.000671
72488.424439 -0.481506 0.215332 -10.054810 -0.001678 -0.002013 -0.005033
72488.434692 -0.475525 0.152527 -10.030884 -0.003691 -0.000336 -0.004362
72488.444449 -0.502441 0.116638 -10.033875 -0.004698 0.000671 -0.001678
72488.454704 -0.517395 0.140564 -10.066772 -0.002349 -0.000336 0.000336
72488.465785 -0.505432 0.152527 -10.060791 -0.002684 0.002349 -0.003020
72488.478286 -0.475525 0.170471 -10.039856 -0.004027 0.000671 -0.003356
72488.484716 -0.466553 0.167480 -10.024902 -0.005369 -0.001007 0.001007
72488.494701 -0.475525 0.140564 -10.048828 -0.002013 -0.000336 -0.001342
72488.504433 -0.505432 0.143555 -10.096680 -0.000336 -0.000336 -0.002684
72488.514686 -0.511414 0.146545 -10.051819 -0.004698 -0.000336 -0.001342
72488.524417 -0.511414 0.116638 -9.980042 -0.004698 0.001007 -0.002684
72488.534698 -0.487488 0.149536 -10.024902 -0.003356 0.002349 -0.003020
72488.544429 -0.472534 0.176453 -10.078735 -0.002349 0.000336 -0.002013
72488.554684 -0.469543 0.137573 -10.042847 -0.005369 0.000671 -0.001174
72488.565776 -0.475525 0.122620 -10.015930 -0.003356 0.000000 -0.000336
72488.578268 -0.508423 0.125610 -10.024902 -0.003691 -0.000671 -0.001342
72488.584696 -0.499451 0.170471 -10.060791 -0.001678 0.003020 -0.002349
72488.594682 -0.460571 0.209351 -10.048828 -0.001678 0.000336 -0.003020
72488.604413 -0.460571 0.155518 -9.997986 -0.003356 0.000503 -0.002517
72488.614666 -0.493469 0.107666 -10.027893 -0.005033 0.000671 -0.002013
72488.624426 -0.514404 0.143555 -10.084717 -0.003356 -0.003020 -0.003691
72488.634679 -0.502441 0.161499 -10.054810 -0.003691 -0.000168 -0.000671
72488.644410 -0.469543 0.158508 -10.009949 -0.002684 0.002684 0.000336
72488.654664 -0.448608 0.182434 -10.027893 -0.003691 0.002684 -0.003020
72488.665751 -0.457581 0.155518 -10.060791 -0.001342 0.001678 -0.003020
72488.678248 -0.490479 0.143555 -10.078735 -0.004362 0.002684 -0.002013
72488.684678 -0.514404 0.164490 -10.060791 -0.002349 -0.001007 -0.002349
72488.694662 -0.508423 0.143555 -10.030884 -0.001678 -0.001174 -0.001901
72488.704419 -0.478516 0.152527 -10.060791 -0.005033 -0.001342 -0.001454
72488.714674 -0.457581 0.200378 -10.072754 -0.004362 -0.001678 -0.001007
72488.724405 -0.460571 0.179443 -10.036865 -0.003020 -0.000336 -0.001342
72488.734660 -0.490479 0.119629 -10.030884 -0.003020 0.001007 -0.001342
72488.744394 -0.517395 0.104675 -10.039856 -0.002013 0.001342 -0.003020
72488.754672 -0.487488 0.119629 -10.024902 -0.005369 0.000336 -0.002013
72488.765767 -0.448608 0.155518 -10.006958 -0.004027 -0.000671 -0.002013
72488.778254 -0.454590 0.167480 -10.018921 -0.004362 0.000671 -0.004027
72488.784684 -0.490479 0.143555 -10.069763 -0.002349 0.000336 -0.000671
72488.794668 -0.520386 0.149536 -10.087708 -0.003356 0.002349 -0.001678
72488.804404 -0.517395 0.167480 -10.033875 -0.006376 0.001007 -0.002684
72488.814654 -0.478516 0.206360 -10.021912 -0.006040 -0.000336 -0.003691
72488.824385 -0.457581 0.221313 -10.081726 0.000336 -0.001678 -0.001678
72488.834666 -0.475525 0.182434 -10.090698 -0.002349 -0.002013 -0.002684
72488.844399 -0.499451 0.158508 -10.060791 -0.005033 0.002013 -0.002013
72488.854652 -0.529358 0.173462 -10.045837 -0.004362 0.000671 -0.001342
72488.865739 -0.544312 0.134583 -10.030884 -0.003020 -0.000336 -0.002013
72488.878236 -0.526367 0.104675 -10.024902 -0.003020 0.000671 -0.004698
72488.884671 -0.484497 0.161499 -10.027893 -0.002013 -0.000336 -0.001342
72488.894650 -0.472534 0.155518 -10.033875 -0.002684 0.003356 -0.002684
72488.904384 -0.505432 0.101685 -10.048828 -0.003356 -0.000336 -0.004027
72488.914662 -0.541321 0.107666 -10.015930 -0.004362 -0.001342 -0.004698
72488.924396 -0.523376 0.158508 -9.992004 -0.003356 0.001342 -0.004027
72488.934646 -0.472534 0.200378 -10.042847 -0.003020 -0.000336 -0.002013
72488.944382 -0.439636 0.191406 -10.075745 -0.005369 0.004027 -0.001678
72488.954632 -0.457581 0.140564 -10.030884 -0.004698 0.001007 -0.000503
72488.965719 -0.496460 0.131592 -10.021912 -0.000671 -0.002349 0.000671
72488.978216 -0.511414 0.152527 -10.054810 -0.002684 -0.001007 -0.002349
72488.984646 -0.466553 0.164490 -10.063782 -0.000671 -0.001007 -0.004362
72488.994630 -0.430664 0.164490 -10.030884 -0.002349 0.001678 -0.003691
72489.000000 -0.438914 0.138089 -10.019334 -0.003275 0.001678 -0.003136
72489.004363 -0.445618 0.116638 -10.009949 -0.004027 0.001678 -0.002684
72489.014616 -0.463562 0.113647 -10.072754 -0.000671 -0.001007 0.000671
72489.024376 -0.481506 0.161499 -10.120605 -0.002349 0.001174 0.000671
72489.034628 -0.505432 0.125610 -10.042847 -0.003356 0.003356 -0.000336
72489.044362 -0.493469 0.077759 -9.977051 -0.002684 -0.000671 -0.003691
72489.054615 -0.451599 0.149536 -10.054810 -0.002684 0.000671 -0.004698
72489.065726 -0.457581 0.179443 -10.096680 -0.003691 0.002013 -0.001342
72489.078197 -0.469543 0.140564 -10.039856 -0.004698 0.001007 -0.003020
72489.084634 -0.496460 0.134583 -9.997986 -0.005369 0.000671 -0.001007
72489.094611 -0.523376 0.146545 -10.039856 -0.006040 0.001007 0.001007
72489.104345 -0.502441 0.188416 -10.096680 -0.003691 0.001342 -0.002349
72489.114623 -0.466553 0.218323 -10.048828 -0.002013 0.002349 -0.003691
72489.124356 -0.469543 0.164490 -9.994995 -0.002684 -0.001007 -0.001342
72489.134609 -0.493469 0.125610 -10.066772 -0.002684 -0.002684 -0.001678
72489.144368 -0.526367 0.146545 -10.102661 -0.005033 -0.001678 -0.003020
72489.154620 -0.514404 0.158508 -10.024902 -0.003356 -0.000671 -0.001678
72489.165707 -0.481506 0.179443 -9.989014 -0.004362 0.000168 -0.003691
72489.178205 -0.487488 0.170471 -10.045837 -0.004698 0.001007 -0.004362
72489.184639 -0.511414 0.152527 -10.072754 -0.001007 0.001342 -0.002013
72489.194593 -0.517395 0.173462 -10.033875 -0.002349 0.001342 -0.002013
72489.204352 -0.514404 0.161499 -10.009949 -0.004027 0.003356 0.000336
72489.214603 -0.505432 0.116638 -10.033875 -0.005704 -0.001007 -0.001007
72489.224339 -0.481506 0.164490 -10.072754 -0.005369 -0.004027 -0.004362
72489.234589 -0.451599 0.191406 -10.033875 -0.002684 -0.001342 -0.004362
72489.244350 -0.442627 0.152527 -10.006958 -0.002013 0.001342 -0.003356
72489.254601 -0.478516 0.146545 -10.060791 -0.001342 0.001342 -0.001678
72489.265688 -0.511414 0.140564 -10.075745 -0.007047 -0.001007 -0.003020
72489.278185 -0.505432 0.149536 -10.015930 -0.005704 -0.000671 -0.002684
72489.284623 -0.472534 0.197388 -10.003967 -0.002349 0.002349 -0.002349
72489.294599 -0.466553 0.176453 -10.048828 -0.004362 0.001678 -0.002684
72489.304333 -0.487488 0.125610 -10.084717 -0.005369 -0.001678 -0.002125
72489.314585 -0.508423 0.140564 -10.069763 -0.002349 -0.002349 -0.001566
72489.324317 -0.511414 0.146545 -10.033875 -0.003020 -0.001678 -0.001007
72489.334597 -0.472534 0.158508 -10.066772 0.000671 0.001678 -0.000671
72489.344329 -0.445618 0.173462 -10.075745 -0.001342 0.003020 -0.001342
72489.354583 -0.466553 0.146545 -10.027893 -0.004027 -0.000671 -0.001007
72489.365668 -0.496460 0.143555 -10.054810 -0.004250 0.001007 -0.002013
72489.378165 -0.511414 0.149536 -10.087708 -0.004474 0.000671 -0.001007
72489.384595 -0.487488 0.113647 -10.042847 -0.004698 -0.000671 -0.002684
72489.394579 -0.448608 0.134583 -10.042847 -0.005033 0.000671 -0.003691
72489.404311 -0.430664 0.182434 -10.087708 -0.003020 0.000671 -0.001342
72489.414591 -0.427673 0.155518 -10.090698 -0.001342 0.001342 -0.001007
72489.424323 -0.442627 0.110657 -10.057800 -0.003020 0.002349 -0.000671
72489.434576 -0.475525 0.092712 -10.027893 -0.002684 0.001342 -0.001342
72489.444309 -0.493469 0.119629 -10.045837 -0.001007 0.000671 -0.003356
72489.454563 -0.469543 0.194397 -10.066772 -0.004362 -0.001007 -0.003691
72489.465676 -0.457581 0.200378 -10.015930 -0.004362 -0.001007 -0.001342
72489.478145 -0.478516 0.125610 -9.983032 -0.004027 -0.001342 0.002013
72489.484574 -0.496460 0.113647 -10.054810 -0.005369 -0.000336 -0.001007
72489.494560 -0.502441 0.143555 -10.069763 -0.002684 -0.001342 -0.003020
72489.504293 -0.472534 0.158508 -10.000977 -0.001678 0.001342 -0.001007
72489.514571 -0.457581 0.164490 -9.983032 -0.002013 0.001678 -0.002684
72489.524304 -0.490479 0.140564 -10.024902 -0.006040 -0.003356 -0.004362
72489.534556 -0.526367 0.146545 -10.048828 -0.002013 -0.001678 -0.002013
72489.544289 -0.535339 0.179443 -10.021912 -0.000336 -0.000168 -0.002684
72489.554546 -0.532349 0.152527 -9.974060 -0.004027 0.001342 -0.003020
72489.565655 -0.535339 0.146545 -10.003967 -0.004027 0.001119 -0.003356
72489.578126 -0.523376 0.188416 -10.060791 -0.003691 0.000895 -0.003691
72489.584557 -0.511414 0.176453 -10.027893 -0.004027 0.000671 -0.003356
72489.594543 -0.511414 0.140564 -10.000977 -0.003020 0.002349 -0.001678
72489.604299 -0.538330 0.131592 -10.042847 -0.002684 0.001342 -0.003020
72489.614553 -0.541321 0.128601 -10.060791 -0.006376 0.001678 -0.002349
72489.624284 -0.514404 0.188416 -10.039856 -0.002349 0.002684 -0.002349
72489.634564 -0.481506 0.215332 -10.042847 -0.004362 0.001007 -0.001007
72489.644297 -0.484497 0.149536 -10.072754 -0.002684 -0.000336 -0.001342
72489.654554 -0.496460 0.128601 -10.102661 -0.001678 0.000839 -0.000671
72489.665636 -0.517395 0.158508 -10.081726 -0.002684 0.002013 0.001007
72489.678133 -0.499451 0.158508 -10.054810 -0.001342 0.002013 -0.002349
72489.684564 -0.427673 0.185425 -10.081726 -0.001007 0.000336 -0.004362
72489.694550 -0.418701 0.170471 -10.084717 -0.000671 0.001342 -0.003356
72489.704281 -0.439636 0.131592 -10.081726 -0.006711 0.002013 -0.004362
72489.714558 -0.454590 0.152527 -10.099670 -0.003691 0.001342 -0.002349
72489.724265 -0.469543 0.152527 -10.075745 -0.001007 -0.003691 -0.002349
72489.734518 -0.466553 0.098694 -10.039856 -0.002684 -0.001678 0.000671
72489.744278 -0.445618 0.131592 -10.042847 -0.002013 0.003020 0.000671
72489.754530 -0.427673 0.167480 -10.045837 -0.001678 0.001678 -0.004027
72489.765616 -0.433655 0.137573 -10.030884 -0.003691 0.000671 -0.004362
72489.778113 -0.451599 0.122620 -10.024902 -0.002684 -0.002013 -0.002684
72489.784546 -0.487488 0.119629 -10.012939 -0.001678 -0.002684 -0.000336
72489.794528 -0.487488 0.146545 -10.021912 -0.004027 0.002349 0.001007
72489.804260 -0.475525 0.194397 -10.015930 -0.007047 0.001342 -0.000671
72489.814538 -0.463562 0.164490 -9.989014 -0.005033 -0.000671 -0.001007
72489.824275 -0.490479 0.125610 -9.983032 -0.003691 -0.001342 -0.004027
72489.834525 -0.541321 0.134583 -10.018921 -0.002013 -0.002349 -0.003691
72489.844257 -0.559265 0.149536 -10.021912 -0.004698 0.001007 -0.002517
72489.854511 -0.520386 0.197388 -9.989014 -0.005033 0.001342 -0.001342
72489.865623 -0.490479 0.188416 -9.986023 -0.001678 -0.000671 -0.001678
72489.878095 -0.514404 0.146545 -10.024902 -0.005033 -0.002684 -0.002013
72489.884523 -0.550293 0.173462 -10.057800 -0.003691 0.000336 -0.002349
72489.894509 -0.559265 0.191406 -10.048828 -0.003356 -0.000336 -0.003356
72489.904268 -0.553284 0.125610 -10.012939 -0.001342 -0.001007 -0.004027
72489.914521 -0.544312 0.134583 -10.042847 0.001007 0.002349 -0.003020
72489.924253 -0.523376 0.191406 -10.102661 -0.001678 0.003020 -0.002013
72489.934507 -0.511414 0.134583 -10.084717 -0.005033 -0.000671 -0.001007
72489.944241 -0.499451 0.101685 -10.063782 -0.003691 0.001342 -0.003691
72489.954519 -0.526367 0.107666 -10.069763 -0.003356 0.001678 -0.002013
72489.965603 -0.532349 0.098694 -10.099670 -0.005369 0.002684 -0.003020
72489.978101 -0.487488 0.149536 -10.099670 -0.004698 0.001342 -0.004698
72489.984532 -0.442627 0.191406 -10.054810 -0.003020 0.002684 -0.002684
72489.994515 -0.457581 0.119629 -10.048828 -0.001342 -0.001007 -0.001342
72490.000000 -0.467694 0.096031 -10.080854 -0.003044 -0.000818 -0.001910
72490.004247 -0.475525 0.077759 -10.105652 -0.004362 -0.000671 -0.002349
72490.014501 -0.487488 0.119629 -10.078735 -0.005033 0.003020 -0.001342
72490.024232 -0.466553 0.149536 -10.012939 -0.008053 0.005704 -0.002013
72490.034510 -0.427673 0.158508 -10.033875 -0.005369 0.003356 -0.002684
72490.044244 -0.412720 0.146545 -10.066772 0.000336 0.000336 -0.003020
72490.054505 -0.421692 0.152527 -10.045837 0.000336 -0.000671 -0.000671
72490.065589 -0.448608 0.182434 -10.021912 -0.005033 -0.002684 -0.001678
72490.078081 -0.454590 0.131592 -10.012939 -0.005369 0.000839 -0.003356
72490.084510 -0.451599 0.110657 -10.015930 -0.005369 0.004362 -0.001007
72490.094497 -0.424683 0.191406 -10.036865 -0.005369 0.000336 -0.001678
72490.104229 -0.421692 0.197388 -10.018921 -0.004027 -0.000671 -0.001678
72490.114480 -0.436646 0.155518 -10.012939 -0.003020 0.000671 0.000336
72490.124243 -0.460571 0.167480 -10.045837 -0.001678 -0.001007 -0.000671
72490.134491 -0.493469 0.158508 -10.033875 -0.002684 0.000671 -0.002349
72490.144247 -0.478516 0.191406 -10.027893 -0.003691 0.002013 -0.004362
72490.154482 -0.445618 0.245239 -10.042847 -0.004027 -0.000336 -0.004362
72490.165590 -0.451599 0.191406 -10.051819 -0.005369 -0.003691 -0.001342
72490.178061 -0.484497 0.119629 -10.078735 -0.005033 -0.001510 -0.002349
72490.184490 -0.514404 0.158508 -10.090698 -0.001678 0.000671 -0.003020
72490.194476 -0.517395 0.191406 -10.057800 -0.001678 0.001342 -0.002349
72490.204234 -0.484497 0.176453 -10.045837 -0.003356 -0.003020 -0.001342
72490.214488 -0.466553 0.158508 -10.057800 -0.002013 -0.001007 -0.002013
72490.224221 -0.493469 0.149536 -10.054810 -0.003020 0.001007 -0.003356
72490.234474 -0.520386 0.158508 -10.084717 -0.005033 0.000000 -0.002684
72490.244206 -0.532349 0.155518 -10.075745 -0.004027 -0.001007 0.000336
72490.254458 -0.532349 0.131592 -10.024902 -0.002013 -0.001174 0.001678
72490.265570 -0.502441 0.167480 -10.051819 -0.000671 -0.001342 -0.003356
72490.278041 -0.487488 0.200378 -10.078735 -0.002013 0.000000 -0.006040
72490.284471 -0.490479 0.161499 -10.030884 -0.002684 0.001342 -0.002684
72490.294456 -0.508423 0.155518 -10.009949 -0.005033 -0.000336 -0.001174
72490.304188 -0.535339 0.161499 -10.030884 -0.004362 -0.001678 0.000336
72490.314467 -0.526367 0.161499 -10.042847 -0.002013 0.001007 -0.001342
72490.324199 -0.487488 0.206360 -10.021912 -0.002684 0.003356 -0.003020
72490.334453 -0.472534 0.194397 -9.989014 -0.005369 0.002684 -0.007047
72490.344184 -0.496460 0.116638 -10.006958 -0.003020 0.002349 -0.002684
72490.354465 -0.526367 0.116638 -10.036865 -0.000671 -0.000671 -0.002013
72490.365549 -0.526367 0.134583 -10.018921 0.001342 -0.000336 -0.001342
72490.378046 -0.493469 0.140564 -10.000977 -0.003691 0.002349 -0.001342
72490.384477 -0.466553 0.146545 -10.009949 -0.002349 0.000336 -0.000671
72490.394463 -0.487488 0.113647 -10.006958 -0.001342 -0.001678 -0.003020
72490.404196 -0.505432 0.101685 -10.033875 -0.006040 -0.000895 -0.002013
72490.414448 -0.511414 0.128601 -10.063782 -0.003691 -0.000112 -0.002013
72490.424183 -0.514404 0.107666 -10.030884 -0.003691 0.000671 -0.002349
72490.434460 -0.487488 0.107666 -10.027893 -0.003356 0.001678 -0.002013
72490.444192 -0.457581 0.155518 -10.081726 -0.006376 0.000336 -0.001678
72490.454446 -0.457581 0.146545 -10.072754 -0.005369 0.001678 -0.004027
72490.465532 -0.451599 0.128601 -10.048828 -0.001007 0.003020 -0.003356
72490.478029 -0.469543 0.113647 -10.075745 -0.002684 0.002013 -0.000336
72490.484456 -0.493469 0.101685 -10.102661 -0.003356 0.000671 -0.000671
72490.494444 -0.466553 0.161499 -10.084717 -0.003020 -0.002684 0.001342
72490.504175 -0.424683 0.203369 -10.054810 -0.002013 0.002349 -0.002013
72490.514455 -0.439636 0.137573 -10.051819 -0.004027 0.001678 -0.003691
72490.524188 -0.463562 0.101685 -10.087708 -0.005033 0.001007 -0.000336
72490.534441 -0.478516 0.137573 -10.090698 -0.003691 -0.001007 -0.000336
72490.544174 -0.472534 0.149536 -10.048828 -0.005369 0.001007 -0.002013
72490.554426 -0.424683 0.179443 -10.045837 -0.002684 0.002013 -0.004362
72490.565512 -0.415710 0.164490 -10.054810 -0.003356 -0.000671 -0.004027
72490.578010 -0.436646 0.119629 -10.060791 -0.004027 -0.000503 -0.003020
72490.584439 -0.463562 0.161499 -10.069763 -0.006040 -0.000336 -0.000336
72490.594424 -0.505432 0.188416 -10.021912 -0.003356 0.000336 -0.001678
72490.604156 -0.508423 0.149536 -9.977051 -0.004362 -0.001678 -0.002684
72490.614410 -0.484497 0.182434 -10.030884 -0.003356 -0.003356 -0.003020
72490.624170 -0.496460 0.206360 -10.054810 -0.003356 0.002349 -0.001342
72490.634422 -0.487488 0.164490 -10.000977 -0.002013 0.000671 -0.001510
72490.644183 -0.481506 0.176453 -9.974060 -0.004698 0.000336 -0.001678
72490.654433 -0.538330 0.158508 -10.012939 -0.003691 -0.000336 -0.004698
72490.665492 -0.559265 0.143555 -10.039856 -0.001678 0.000503 0.001007
72490.677990 -0.514404 0.221313 -9.997986 0.000336 0.001342 0.001342
72490.684421 -0.502441 0.233276 -9.956116 -0.005704 -0.002349 -0.001342
72490.694405 -0.508423 0.140564 -10.021912 -0.008389 -0.002684 -0.003691
72490.704165 -0.517395 0.137573 -10.081726 -0.001678 -0.001678 -0.005033
72490.714416 -0.544312 0.146545 -10.033875 -0.002349 -0.000671 -0.002684
72490.724150 -0.538330 0.140564 -10.000977 -0.006711 0.000336 -0.000336
72490.734402 -0.478516 0.194397 -10.054810 -0.001007 0.000336 -0.001342
72490.744159 -0.469543 0.158508 -10.072754 -0.001678 -0.000336 -0.003356
72490.754413 -0.487488 0.083740 -10.066772 -0.004362 0.001007 -0.000671
72490.765500 -0.481506 0.125610 -10.090698 -0.002349 0.001007 -0.000336
72490.777997 -0.502441 0.149536 -10.072754 -0.001678 0.003356 -0.000671
72490.784424 -0.511414 0.098694 -10.045837 -0.004698 0.002349 -0.003020
72490.794411 -0.484497 0.119629 -10.066772 -0.003691 0.001007 -0.002684
72490.804144 -0.457581 0.149536 -10.093689 -0.003691 0.001342 -0.001342
72490.814397 -0.451599 0.137573 -10.078735 -0.004362 0.001594 -0.002013
72490.824130 -0.457581 0.146545 -10.051819 -0.002684 0.001846 -0.003691
72490.834382 -0.490479 0.125610 -10.042847 -0.004027 0.002097 -0.003020
72490.844141 -0.499451 0.140564 -10.069763 -0.001678 0.002349 0.000671
72490.854394 -0.466553 0.206360 -10.060791 -0.002013 -0.001342 0.000503
72490.865480 -0.445618 0.167480 -10.012939 -0.002684 0.002349 0.000336
72490.877978 -0.445618 0.083740 -10.027893 -0.002349 0.001342 -0.001174
72490.884408 -0.460571 0.107666 -10.075745 -0.007047 0.001342 -0.002684
72490.894391 -0.487488 0.113647 -10.045837 -0.007047 -0.002349 -0.003020
72490.904124 -0.496460 0.122620 -9.989014 -0.003691 -0.004698 -0.002013
72490.914377 -0.466553 0.188416 -9.986023 -0.003356 0.000336 0.000671
72490.924135 -0.469543 0.158508 -9.997986 -0.005704 0.002013 -0.000671
72490.934389 -0.475525 0.104675 -10.039856 -0.004362 0.001678 -0.004362
72490.944122 -0.490479 0.173462 -10.042847 -0.002684 0.000336 -0.001007
72490.954375 -0.532349 0.209351 -9.968079 -0.003691 0.000503 -0.001678
72490.965460 -0.535339 0.170471 -9.956116 -0.002684 0.000671 -0.000671
72490.977957 -0.505432 0.197388 -10.060791 -0.004027 -0.001678 -0.003691
72490.984389 -0.496460 0.197388 -10.102661 -0.005704 -0.000336 -0.002349
72490.994371 -0.478516 0.170471 -10.036865 -0.002013 0.002349 -0.001007
72491.000000 -0.476786 0.184307 -10.023029 -0.001431 0.000602 -0.002947
72491.004105 -0.475525 0.194397 -10.012939 -0.001007 -0.000671 -0.004362
72491.014383 -0.529358 0.182434 -10.063782 -0.002684 -0.002013 -0.006376
72491.024118 -0.550293 0.176453 -10.093689 -0.003020 -0.001678 -0.001007
72491.034369 -0.493469 0.233276 -10.045837 -0.003356 0.000671 0.002013
72491.044102 -0.472534 0.200378 -10.015930 -0.003691 0.003691 -0.001007
72491.054381 -0.484497 0.113647 -10.072754 -0.003020 0.001510 -0.002013
72491.065468 -0.508423 0.113647 -10.117615 -0.001678 -0.000671 -0.005704
72491.077939 -0.550293 0.128601 -10.054810 -0.003691 0.003020 -0.002684
72491.084368 -0.532349 0.149536 -10.027893 -0.004027 0.002349 0.001342
72491.094353 -0.463562 0.206360 -10.051819 0.000336 0.000671 -0.001342
72491.104111 -0.460571 0.179443 -10.033875 0.000671 -0.000336 -0.001678
72491.114365 -0.475525 0.134583 -10.036865 -0.002349 -0.003691 -0.000671
72491.124097 -0.478516 0.176453 -10.084717 -0.004027 -0.000503 -0.002013
72491.134349 -0.502441 0.173462 -10.057800 -0.005369 0.002684 -0.001678
72491.144110 -0.502441 0.131592 -10.000977 -0.004362 0.001678 -0.004027
72491.154362 -0.454590 0.179443 -10.012939 -0.000336 0.000671 -0.002013
72491.165448 -0.448608 0.188416 -10.036865 -0.004027 -0.000671 -0.002349
72491.177945 -0.448608 0.140564 -10.051819 -0.002349 0.000671 -0.002684
72491.184376 -0.463562 0.128601 -10.033875 -0.000671 0.002684 -0.003020
72491.194359 -0.493469 0.098694 -10.003967 -0.001678 0.002684 -0.003356
72491.204092 -0.499451 0.098694 -10.027893 -0.002684 0.000336 -0.001678
72491.214345 -0.466553 0.197388 -10.063782 -0.003356 0.002013 -0.002013
72491.224077 -0.445618 0.197388 -10.018921 -0.002349 -0.000336 -0.002349
72491.234331 -0.457581 0.101685 -9.992004 -0.006040 -0.003356 -0.002684
72491.244090 -0.463562 0.080750 -10.057800 -0.004362 0.001007 -0.002684
72491.254343 -0.493469 0.089722 -10.087708 -0.003020 0.000895 -0.002684
72491.265428 -0.496460 0.116638 -10.054810 -0.000336 0.000783 -0.003020
72491.277925 -0.451599 0.170471 -10.018921 0.000671 0.000671 -0.002013
72491.284356 -0.436646 0.149536 -10.027893 -0.004362 0.001678 -0.003356
72491.294339 -0.472534 0.104675 -10.090698 -0.006376 0.001678 -0.002684
72491.304076 -0.514404 0.128601 -10.093689 -0.004027 0.000671 -0.002349
72491.314326 -0.538330 0.122620 -10.012939 -0.003691 -0.000671 -0.000336
72491.324058 -0.508423 0.104675 -10.021912 -0.002349 -0.001342 0.000671
72491.334337 -0.484497 0.152527 -10.108643 -0.002013 -0.000336 -0.001678
72491.344068 -0.490479 0.155518 -10.090698 -0.003020 0.000671 -0.001342
72491.354323 -0.481506 0.110657 -10.027893 -0.004027 0.000503 -0.001007
72491.365409 -0.478516 0.119629 -10.054810 -0.003356 0.000336 -0.005704
72491.377906 -0.535339 0.107666 -10.084717 -0.005033 -0.000671 -0.003356
72491.384335 -0.550293 0.128601 -10.060791 -0.005704 0.000671 -0.001678
72491.394321 -0.505432 0.218323 -10.009949 -0.005033 -0.000336 -0.002349
72491.404053 -0.490479 0.194397 -10.003967 -0.004027 -0.001342 -0.002013
72491.414333 -0.493469 0.104675 -10.063782 -0.003691 0.002684 -0.002349
72491.424065 -0.502441 0.110657 -10.072754 -0.004027 0.002684 -0.000671
72491.434317 -0.520386 0.134583 -10.012939 -0.003020 -0.000671 -0.001007
72491.444051 -0.493469 0.164490 -10.015930 -0.003356 -0.002013 -0.004027
72491.454329 -0.460571 0.215332 -10.042847 -0.003020 0.002684 -0.001007
72491.465416 -0.454590 0.185425 -10.009949 -0.006711 0.005033 -0.001678
72491.477913 -0.463562 0.140564 -10.006958 -0.007382 0.003020 -0.002349
72491.484343 -0.475525 0.179443 -10.051819 -0.002684 0.001007 -0.002684
72491.494327 -0.496460 0.191406 -10.024902 -0.000671 0.000839 -0.004027
72491.504059 -0.475525 0.158508 -9.997986 -0.003356 0.000671 -0.002013
72491.514313 -0.436646 0.194397 -10.039856 -0.005369 -0.003020 -0.000336
72491.524045 -0.430664 0.212341 -10.063782 -0.004362 0.002013 -0.001678
72491.534325 -0.424683 0.188416 -10.057800 -0.005369 0.001678 -0.004027
72491.544031 -0.424683 0.182434 -10.051819 -0.002684 0.000503 -0.001007
72491.554286 -0.472534 0.146545 -10.045837 -0.004027 -0.000671 0.002013
72491.565395 -0.481506 0.167480 -10.072754 -0.002349 -0.000671 -0.002013
72491.577894 -0.460571 0.239258 -10.060791 -0.000671 0.000336 -0.005033
72491.584323 -0.448608 0.200378 -10.039856 -0.006376 -0.001007 -0.001342
72491.594307 -0.454590 0.119629 -10.066772 -0.002349 -0.002013 0.001007
72491.604041 -0.487488 0.137573 -10.078735 -0.001342 -0.000671 -0.002181
72491.614293 -0.523376 0.161499 -10.039856 -0.005369 0.000671 -0.005369
72491.624026 -0.511414 0.197388 -10.030884 -0.004027 0.001342 -0.003020
72491.634305 -0.478516 0.236267 -10.051819 -0.002013 0.002349 -0.001007
72491.644037 -0.484497 0.161499 -10.051819 -0.003020 -0.002013 -0.001007
72491.654292 -0.493469 0.110657 -10.075745 -0.003356 -0.003691 -0.001007
72491.665378 -0.502441 0.173462 -10.099670 0.000336 -0.001510 -0.001342
72491.677871 -0.532349 0.170471 -10.030884 -0.001007 0.000671 -0.002013
72491.684303 -0.541321 0.134583 -9.994995 -0.002349 -0.001342 -0.003691
72491.694289 -0.505432 0.164490 -10.057800 -0.001678 0.001007 -0.001678
72491.704021 -0.499451 0.152527 -10.078735 -0.003020 0.001678 0.001007
72491.714275 -0.505432 0.125610 -10.039856 -0.004027 0.001342 -0.002349
72491.724033 -0.505432 0.134583 -10.012939 -0.003691 0.001342 -0.005369
72491.734285 -0.529358 0.116638 -10.009949 -0.004027 0.000503 -0.004027
72491.744022 -0.517395 0.134583 -10.048828 -0.002349 -0.000336 -0.002517
72491.754271 -0.475525 0.215332 -10.051819 -0.002013 0.003691 -0.001007
72491.765384 -0.472534 0.170471 -9.994995 -0.004027 0.003356 -0.003356
72491.777875 -0.484497 0.083740 -10.012939 -0.004698 -0.000336 -0.002013
72491.784311 -0.517395 0.119629 -10.054810 -0.003020 -0.002013 -0.002349
72491.794269 -0.523376 0.164490 -10.027893 -0.003356 0.002684 -0.000671
72491.804001 -0.472534 0.188416 -10.009949 -0.003356 0.000336 -0.002349
72491.814282 -0.436646 0.212341 -10.021912 -0.000336 -0.002013 -0.003691
72491.824014 -0.448608 0.176453 -10.033875 -0.001342 0.001007 -0.003020
72491.834267 -0.490479 0.146545 -10.060791 -0.003020 0.004027 -0.002013
72491.843999 -0.520386 0.164490 -10.063782 -0.001678 -0.003020 -0.002349
72491.854254 -0.520386 0.128601 -10.036865 -0.000336 -0.000336 -0.000336
72491.865364 -0.499451 0.104675 -10.036865 -0.002684 0.003691 -0.001007
72491.877867 -0.460571 0.125610 -10.066772 -0.004362 0.002684 -0.003020
72491.884291 -0.466553 0.107666 -10.039856 -0.002684 -0.001007 -0.001678
72491.894250 -0.466553 0.092712 -10.033875 -0.001342 -0.000336 -0.004362
72491.904009 -0.469543 0.074768 -10.051819 -0.003020 0.000336 -0.003020
72491.914261 -0.505432 0.029907 -10.048828 -0.004698 0.001342 -0.001007
72491.923993 -0.496460 0.086731 -10.051819 -0.004698 -0.000671 -0.000671
72491.934248 -0.463562 0.173462 -10.045837 -0.005704 0.000671 -0.000671
72491.944005 -0.460571 0.116638 -10.027893 -0.002684 0.001007 -0.002013
72491.954259 -0.475525 0.065796 -10.048828 -0.003691 -0.000671 -0.000671
72491.965345 -0.511414 0.107666 -10.066772 -0.004698 0.000671 -0.000671
72491.977849 -0.523376 0.122620 -10.051819 -0.005369 0.001510 -0.001342
72491.984271 -0.475525 0.152527 -10.048828 -0.006711 0.002349 -0.001007
72491.994257 -0.445618 0.173462 -10.054810 -0.005033 0.001007 -0.000671
72492.000000 -0.454442 0.145224 -10.056574 -0.004439 0.000215 -0.001265
72492.003989 -0.460571 0.125610 -10.057800 -0.004027 -0.000336 -0.001678
72492.014244 -0.487488 0.104675 -10.069763 -0.003691 0.001342 -0.004698
72492.023975 -0.502441 0.149536 -10.081726 -0.001342 0.001007 -0.004027
72492.034254 -0.520386 0.110657 -10.039856 -0.005704 0.000336 -0.003803
72492.043987 -0.499451 0.122620 -10.027893 -0.005704 -0.000336 -0.003579
72492.054239 -0.463562 0.197388 -10.051819 -0.002349 -0.000336 -0.003356
72492.065326 -0.460571 0.194397 -10.054810 -0.003356 -0.000839 -0.001678
72492.077832 -0.481506 0.170471 -10.048828 -0.006040 -0.001342 -0.003188
72492.084253 -0.520386 0.152527 -10.021912 -0.008053 -0.000671 -0.004698
72492.094237 -0.544312 0.167480 -10.015930 -0.008389 -0.001342 -0.002684
72492.103969 -0.511414 0.260193 -10.054810 -0.004027 0.001007 -0.003356
72492.114249 -0.469543 0.296082 -10.027893 -0.003020 0.002684 -0.002349
72492.123981 -0.457581 0.227295 -9.986023 -0.004698 0.001678 -0.001342
72492.134235 -0.472534 0.185425 -10.033875 -0.006040 0.001007 -0.000336
72492.143967 -0.484497 0.200378 -10.090698 -0.003691 -0.000336 -0.003020
72492.154221 -0.490479 0.206360 -10.039856 -0.002349 -0.001007 -0.001007
72492.165331 -0.460571 0.242249 -9.994995 -0.004362 -0.001678 -0.001342
72492.177803 -0.433655 0.239258 -10.027893 -0.001007 -0.002349 -0.003356
72492.184233 -0.451599 0.170471 -10.066772 -0.002684 -0.000503 -0.002181
72492.194217 -0.457581 0.176453 -10.072754 -0.002013 0.001342 -0.001007
72492.203951 -0.484497 0.197388 -10.015930 -0.002684 -0.001342 -0.002013
72492.214229 -0.499451 0.167480 -9.994995 -0.005369 0.001342 0.001342
72492.223962 -0.487488 0.182434 -10.057800 -0.003188 0.002349 -0.000671
72492.234215 -0.478516 0.197388 -10.078735 -0.001007 0.001119 -0.002684
72492.243948 -0.478516 0.164490 -10.036865 -0.003691 -0.000112 -0.002013
72492.254227 -0.466553 0.152527 -10.042847 -0.002013 -0.001342 -0.004027
72492.265314 -0.490479 0.134583 -10.075745 -0.000336 0.001174 -0.002684
72492.277785 -0.517395 0.125610 -10.072754 -0.002349 0.003691 0.000671
72492.284213 -0.484497 0.185425 -10.063782 -0.002349 0.000671 -0.001342
72492.294199 -0.469543 0.194397 -10.063782 -0.003020 0.000336 -0.000336
72492.303957 -0.481506 0.110657 -10.078735 -0.002684 -0.001007 -0.002684
72492.314211 -0.484497 0.080750 -10.096680 -0.003020 -0.001342 -0.004027
72492.323943 -0.514404 0.098694 -10.075745 -0.005033 0.001342 -0.002349
72492.334221 -0.517395 0.104675 -10.048828 -0.002181 0.003356 -0.001846
72492.343955 -0.478516 0.140564 -10.045837 0.000671 0.000671 -0.001342
72492.354207 -0.475525 0.107666 -10.030884 -0.001678 -0.000336 -0.001678
72492.365293 -0.499451 0.074768 -10.045837 -0.002684 -0.001342 -0.003356
72492.377791 -0.517395 0.119629 -10.075745 -0.003020 0.001678 -0.002684
72492.384220 -0.526367 0.122620 -10.030884 -0.006040 0.001678 -0.004027
72492.394205 -0.520386 0.071777 -9.983032 -0.007382 0.000671 -0.002684
72492.403937 -0.496460 0.122620 -10.027893 -0.004362 0.000839 -0.002349
72492.414191 -0.469543 0.161499 -10.063782 -0.001342 0.001007 -0.000336
72492.423923 -0.475525 0.122620 -10.015930 -0.003356 0.000671 -0.001342
72492.434203 -0.481506 0.119629 -10.009949 -0.000671 0.000336 -0.003691
72492.443935 -0.502441 0.122620 -10.021912 -0.005033 -0.000336 -0.002013
72492.454189 -0.499451 0.149536 -10.039856 -0.006040 0.000671 -0.001678
72492.465300 -0.451599 0.212341 -10.039856 -0.005704 0.003356 -0.003356
72492.477771 -0.439636 0.185425 -10.009949 -0.006040 0.004027 -0.002013
72492.484201 -0.457581 0.128601 -10.030884 -0.001678 -0.000671 0.002684
72492.494185 -0.472534 0.167480 -10.078735 -0.000671 -0.000336 -0.000336
72492.503919 -0.475525 0.200378 -10.048828 -0.004027 0.003356 -0.003691
72492.514197 -0.466553 0.191406 -10.009949 -0.005704 -0.000336 -0.002684
72492.523929 -0.436646 0.200378 -10.042847 -0.003356 -0.003356 -0.003691
72492.534183 -0.436646 0.197388 -10.072754 -0.001342 -0.000671 -0.003467
72492.543915 -0.460571 0.200378 -10.081726 -0.003691 0.000671 -0.003244
72492.554169 -0.463562 0.221313 -10.078735 -0.005033 0.003356 -0.003020
72492.565254 -0.484497 0.191406 -10.033875 0.000336 0.002349 -0.001007
72492.577753 -0.475525 0.170471 -10.051819 -0.003020 0.000336 -0.001342
72492.584181 -0.433655 0.194397 -10.111633 -0.005369 -0.001678 -0.001678
72492.594166 -0.433655 0.182434 -10.087708 -0.004362 -0.001426 -0.003691
72492.603899 -0.472534 0.161499 -10.057800 -0.000671 -0.001174 -0.001678
72492.614179 -0.487488 0.143555 -10.051819 -0.000671 -0.000923 -0.000671
72492.623911 -0.508423 0.140564 -10.030884 -0.003356 -0.000671 -0.001007
72492.634163 -0.490479 0.188416 -10.054810 0.000671 -0.001678 -0.003020
72492.643897 -0.487488 0.164490 -10.051819 -0.003020 -0.000671 -0.002684
72492.654175 -0.499451 0.095703 -10.030884 -0.008053 -0.001174 -0.004698
72492.665262 -0.511414 0.110657 -10.039856 -0.001678 -0.001678 -0.002013
72492.677733 -0.517395 0.164490 -10.045837 -0.003020 0.003020 -0.002349
72492.684163 -0.505432 0.137573 -10.018921 -0.004362 0.000671 -0.000336
72492.694173 -0.478516 0.122620 -10.012939 -0.000336 0.001007 -0.002349
72492.703905 -0.463562 0.128601 -10.033875 -0.000336 0.000671 -0.000336
72492.714160 -0.496460 0.092712 -10.054810 -0.004362 0.000503 0.001342
72492.723892 -0.535339 0.119629 -10.054810 -0.005369 0.000336 -0.003356
72492.734171 -0.541321 0.122620 -10.003967 -0.006040 0.001678 -0.005704
72492.743873 -0.514404 0.092712 -10.000977 -0.003691 0.000336 -0.003356
72492.754157 -0.490479 0.104675 -10.042847 -0.001678 0.001510 -0.001342
72492.765241 -0.466553 0.128601 -10.042847 -0.002013 0.002684 -0.001342
72492.777738 -0.475525 0.110657 -10.033875 -0.005369 0.001678 -0.002684
72492.784169 -0.496460 0.092712 -10.045837 -0.001342 0.003356 0.000336
72492.794153 -0.511414 0.113647 -10.045837 -0.003691 0.000671 -0.003020
72492.803890 -0.481506 0.164490 -10.051819 -0.004698 -0.001007 -0.005033
72492.814140 -0.451599 0.170471 -10.057800 -0.002349 0.000671 -0.001678
72492.823898 -0.454590 0.125610 -10.042847 -0.005033 -0.000336 -0.000671
72492.834151 -0.484497 0.146545 -10.051819 -0.003356 0.000336 -0.002013
72492.843891 -0.505432 0.173462 -10.072754 -0.006376 0.001007 -0.001678
72492.854137 -0.478516 0.173462 -10.069763 -0.006376 -0.001342 0.000336
72492.865222 -0.433655 0.197388 -10.048828 -0.001678 -0.000671 -0.000671
72492.877721 -0.439636 0.191406 -10.045837 -0.002349 0.000336 -0.003020
72492.884149 -0.463562 0.146545 -10.075745 -0.003356 0.001342 -0.002349
72492.894135 -0.487488 0.185425 -10.078735 -0.001678 0.000671 -0.002013
72492.903868 -0.490479 0.197388 -10.018921 -0.004362 0.002013 -0.004698
72492.914146 -0.484497 0.134583 -10.012939 -0.003691 0.001007 -0.002517
72492.923875 -0.475525 0.161499 -10.087708 0.000336 -0.000336 -0.000336
72492.934131 -0.475525 0.206360 -10.081726 -0.003691 0.000671 -0.001342
72492.943870 -0.475525 0.170471 -10.018921 -0.007718 0.000587 -0.001342
72492.954143 -0.496460 0.143555 -10.009949 -0.005033 0.000503 -0.002013
72492.965203 -0.529358 0.170471 -10.024902 -0.003356 0.000419 -0.003020
72492.977701 -0.511414 0.224304 -10.036865 -0.002684 0.000336 -0.002684
72492.984131 -0.481506 0.209351 -10.027893 -0.003691 -0.000336 -0.003356
72492.994115 -0.481506 0.149536 -10.021912 -0.003691 -0.000336 -0.002684
72493.000000 -0.495962 0.149536 -10.034560 -0.003488 0.000273 -0.002482
72493.003856 -0.505432 0.149536 -10.042847 -0.003356 0.000671 -0.002349
72493.014129 -0.520386 0.176453 -10.066772 -0.002013 0.001678 -0.002013
72493.023865 -0.517395 0.161499 -10.033875 -0.001678 0.001007 -0.001174
72493.034120 -0.472534 0.170471 -10.006958 -0.001678 -0.001007 -0.000336
72493.043853 -0.457581 0.164490 -10.012939 -0.001678 0.001007 -0.003691
72493.054097 -0.463562 0.110657 -10.054810 -0.007047 0.002349 -0.001342
72493.065209 -0.484497 0.128601 -10.081726 -0.002013 0.002349 -0.002517
72493.077706 -0.496460 0.155518 -10.039856 -0.000336 -0.001678 -0.003691
72493.084136 -0.493469 0.104675 -10.003967 -0.006376 0.000671 -0.001007
72493.094120 -0.478516 0.116638 -10.057800 -0.003691 0.003020 -0.000671
72493.103861 -0.454590 0.197388 -10.087708 -0.003356 0.000336 -0.000336
72493.114106 -0.430664 0.170471 -10.051819 -0.002684 -0.004362 -0.001007
72493.123838 -0.448608 0.119629 -10.051819 -0.001007 0.001007 -0.000336
72493.134092 -0.490479 0.149536 -10.063782 -0.002349 0.000671 -0.001007
72493.143857 -0.481506 0.197388 -10.063782 -0.003691 0.001678 -0.002684
72493.154104 -0.451599 0.215332 -10.060791 -0.002852 0.001342 -0.003356
72493.165189 -0.439636 0.158508 -10.054810 -0.002013 -0.000671 -0.001342
72493.177687 -0.454590 0.116638 -10.069763 -0.001342 0.001007 -0.001678
72493.184116 -0.487488 0.131592 -10.072754 -0.001342 0.002684 -0.003691
72493.194101 -0.487488 0.137573 -10.033875 -0.006376 -0.000336 -0.002013
72493.203834 -0.469543 0.137573 -10.015930 -0.006040 -0.001007 0.001678
72493.214086 -0.466553 0.137573 -10.042847 -0.002684 -0.002349 -0.002013
